{
  "resourceType": "Bundle",
  "type": "collection",
  "entry": [
    {
      "resource": {
        "resourceType": "Patient",
        "id": "e66cb723-c43f-4465-9bf9-c1a7b60ca941",
        "name": [
          {
            "text": "Gary Johnston"
          }
        ],
        "telecom": [
          {
            "system": "email",
            "value": "vaughnmelissa@example.org",
            "use": "home"
          }
        ],
        "gender": "other",
        "birthDate": "2019-03-12"
      }
    },
    {
      "resource": {
        "resourceType": "Observation",
        "status": "final",
        "code": {
          "coding": [
            {
              "system": "http://loinc.org",
              "code": "8867-4",
              "display": "Heart rate"
            }
          ]
        },
        "subject": {
          "reference": "Patient/e66cb723-c43f-4465-9bf9-c1a7b60ca941"
        },
        "effectiveDateTime": "2024-01-01T00:00:00",
        "valueQuantity": {
          "value": 72.0,
          "unit": "beats/minute"
        }
      }
    },
    {
      "resource": {
        "resourceType": "Observation",
        "status": "final",
        "code": {
          "coding": [
            {
              "system": "http://loinc.org",
              "code": "85354-9",
              "display": "Blood pressure panel"
            }
          ]
        },
        "subject": {
          "reference": "Patient/e66cb723-c43f-4465-9bf9-c1a7b60ca941"
        },
        "effectiveDateTime": "2024-01-01T00:00:00",
        "component": [
          {
            "code": {
              "coding": [
                {
                  "system": "http://loinc.org",
                  "code": "8480-6",
                  "display": "Systolic"
                }
              ]
            },
            "valueQuantity": {
              "value": 137.0,
              "unit": "mmHg"
            }
          },
          {
            "code": {
              "coding": [
                {
                  "system": "http://loinc.org",
                  "code": "8462-4",
                  "display": "Diastolic"
                }
              ]
            },
            "valueQuantity": {
              "value": 83.0,
              "unit": "mmHg"
            }
          }
        ]
      }
    },
    {
      "resource": {
        "resourceType": "Patient",
        "id": "e872e37d-8ae6-4b2e-a962-d372fd98a0b9",
        "name": [
          {
            "text": "Allen Beck"
          }
        ],
        "telecom": [
          {
            "system": "email",
            "value": "jerry30@example.net",
            "use": "home"
          }
        ],
        "gender": "male",
        "birthDate": "2018-10-06"
      }
    },
    {
      "resource": {
        "resourceType": "Observation",
        "status": "final",
        "code": {
          "coding": [
            {
              "system": "http://loinc.org",
              "code": "8867-4",
              "display": "Heart rate"
            }
          ]
        },
        "subject": {
          "reference": "Patient/e872e37d-8ae6-4b2e-a962-d372fd98a0b9"
        },
        "effectiveDateTime": "2024-01-01T00:00:00",
        "valueQuantity": {
          "value": 105.0,
          "unit": "beats/minute"
        }
      }
    },
    {
      "resource": {
        "resourceType": "Observation",
        "status": "final",
        "code": {
          "coding": [
            {
              "system": "http://loinc.org",
              "code": "85354-9",
              "display": "Blood pressure panel"
            }
          ]
        },
        "subject": {
          "reference": "Patient/e872e37d-8ae6-4b2e-a962-d372fd98a0b9"
        },
        "effectiveDateTime": "2024-01-01T00:00:00",
        "component": [
          {
            "code": {
              "coding": [
                {
                  "system": "http://loinc.org",
                  "code": "8480-6",
                  "display": "Systolic"
                }
              ]
            },
            "valueQuantity": {
              "value": 90.0,
              "unit": "mmHg"
            }
          },
          {
            "code": {
              "coding": [
                {
                  "system": "http://loinc.org",
                  "code": "8462-4",
                  "display": "Diastolic"
                }
              ]
            },
            "valueQuantity": {
              "value": 63.0,
              "unit": "mmHg"
            }
          }
        ]
      }
    },
    {
      "resource": {
        "resourceType": "Patient",
        "id": "1edb48bf-0d71-4075-a3e4-3b9bcaf2893d",
        "name": [
          {
            "text": "Isaiah Byrd"
          }
        ],
        "telecom": [
          {
            "system": "email",
            "value": "kwilson@example.com",
            "use": "home"
          }
        ],
        "gender": "male",
        "birthDate": "1936-04-15"
      }
    },
    {
      "resource": {
        "resourceType": "Observation",
        "status": "final",
        "code": {
          "coding": [
            {
              "system": "http://loinc.org",
              "code": "8867-4",
              "display": "Heart rate"
            }
          ]
        },
        "subject": {
          "reference": "Patient/1edb48bf-0d71-4075-a3e4-3b9bcaf2893d"
        },
        "effectiveDateTime": "2024-01-01T00:00:00",
        "valueQuantity": {
          "value": 71.0,
          "unit": "beats/minute"
        }
      }
    },
    {
      "resource": {
        "resourceType": "Observation",
        "status": "final",
        "code": {
          "coding": [
            {
              "system": "http://loinc.org",
              "code": "85354-9",
              "display": "Blood pressure panel"
            }
          ]
        },
        "subject": {
          "reference": "Patient/1edb48bf-0d71-4075-a3e4-3b9bcaf2893d"
        },
        "effectiveDateTime": "2024-01-01T00:00:00",
        "component": [
          {
            "code": {
              "coding": [
                {
                  "system": "http://loinc.org",
                  "code": "8480-6",
                  "display": "Systolic"
                }
              ]
            },
            "valueQuantity": {
              "value": 111.0,
              "unit": "mmHg"
            }
          },
          {
            "code": {
              "coding": [
                {
                  "system": "http://loinc.org",
                  "code": "8462-4",
                  "display": "Diastolic"
                }
              ]
            },
            "valueQuantity": {
              "value": 68.0,
              "unit": "mmHg"
            }
          }
        ]
      }
    },
    {
      "resource": {
        "resourceType": "Patient",
        "id": "28c74895-5837-4d69-989b-6c8444f47253",
        "name": [
          {
            "text": "Caroline Rodriguez"
          }
        ],
        "telecom": [
          {
            "system": "email",
            "value": "perezmarc@example.org",
            "use": "home"
          }
        ],
        "gender": "other",
        "birthDate": "1947-07-30"
      }
    },
    {
      "resource": {
        "resourceType": "Observation",
        "status": "final",
        "code": {
          "coding": [
            {
              "system": "http://loinc.org",
              "code": "8867-4",
              "display": "Heart rate"
            }
          ]
        },
        "subject": {
          "reference": "Patient/28c74895-5837-4d69-989b-6c8444f47253"
        },
        "effectiveDateTime": "2024-01-01T00:00:00",
        "valueQuantity": {
          "value": 53.0,
          "unit": "beats/minute"
        }
      }
    },
    {
      "resource": {
        "resourceType": "Observation",
        "status": "final",
        "code": {
          "coding": [
            {
              "system": "http://loinc.org",
              "code": "85354-9",
              "display": "Blood pressure panel"
            }
          ]
        },
        "subject": {
          "reference": "Patient/28c74895-5837-4d69-989b-6c8444f47253"
        },
        "effectiveDateTime": "2024-01-01T00:00:00",
        "component": [
          {
            "code": {
              "coding": [
                {
                  "system": "http://loinc.org",
                  "code": "8480-6",
                  "display": "Systolic"
                }
              ]
            },
            "valueQuantity": {
              "value": 149.0,
              "unit": "mmHg"
            }
          },
          {
            "code": {
              "coding": [
                {
                  "system": "http://loinc.org",
                  "code": "8462-4",
                  "display": "Diastolic"
                }
              ]
            },
            "valueQuantity": {
              "value": 96.0,
              "unit": "mmHg"
            }
          }
        ]
      }
    },
    {
      "resource": {
        "resourceType": "Patient",
        "id": "b9f603e8-a5f6-4003-82a7-8ae0c96d8019",
        "name": [
          {
            "text": "Justin Jefferson"
          }
        ],
        "telecom": [
          {
            "system": "email",
            "value": "wwilliams@example.com",
            "use": "home"
          }
        ],
        "gender": "female",
        "birthDate": "1958-01-27"
      }
    },
    {
      "resource": {
        "resourceType": "Observation",
        "status": "final",
        "code": {
          "coding": [
            {
              "system": "http://loinc.org",
              "code": "8867-4",
              "display": "Heart rate"
            }
          ]
        },
        "subject": {
          "reference": "Patient/b9f603e8-a5f6-4003-82a7-8ae0c96d8019"
        },
        "effectiveDateTime": "2024-01-01T00:00:00",
        "valueQuantity": {
          "value": 63.0,
          "unit": "beats/minute"
        }
      }
    },
    {
      "resource": {
        "resourceType": "Observation",
        "status": "final",
        "code": {
          "coding": [
            {
              "system": "http://loinc.org",
              "code": "85354-9",
              "display": "Blood pressure panel"
            }
          ]
        },
        "subject": {
          "reference": "Patient/b9f603e8-a5f6-4003-82a7-8ae0c96d8019"
        },
        "effectiveDateTime": "2024-01-01T00:00:00",
        "component": [
          {
            "code": {
              "coding": [
                {
                  "system": "http://loinc.org",
                  "code": "8480-6",
                  "display": "Systolic"
                }
              ]
            },
            "valueQuantity": {
              "value": 171.0,
              "unit": "mmHg"
            }
          },
          {
            "code": {
              "coding": [
                {
                  "system": "http://loinc.org",
                  "code": "8462-4",
                  "display": "Diastolic"
                }
              ]
            },
            "valueQuantity": {
              "value": 96.0,
              "unit": "mmHg"
            }
          }
        ]
      }
    },
    {
      "resource": {
        "resourceType": "Patient",
        "id": "9cd55d2c-49a0-43e0-81dc-ee82570475ad",
        "name": [
          {
            "text": "Jennifer Washington"
          }
        ],
        "telecom": [
          {
            "system": "email",
            "value": "thompsonaimee@example.net",
            "use": "home"
          }
        ],
        "gender": "female",
        "birthDate": "1943-10-12"
      }
    },
    {
      "resource": {
        "resourceType": "Observation",
        "status": "final",
        "code": {
          "coding": [
            {
              "system": "http://loinc.org",
              "code": "8867-4",
              "display": "Heart rate"
            }
          ]
        },
        "subject": {
          "reference": "Patient/9cd55d2c-49a0-43e0-81dc-ee82570475ad"
        },
        "effectiveDateTime": "2024-01-01T00:00:00",
        "valueQuantity": {
          "value": 92.0,
          "unit": "beats/minute"
        }
      }
    },
    {
      "resource": {
        "resourceType": "Observation",
        "status": "final",
        "code": {
          "coding": [
            {
              "system": "http://loinc.org",
              "code": "85354-9",
              "display": "Blood pressure panel"
            }
          ]
        },
        "subject": {
          "reference": "Patient/9cd55d2c-49a0-43e0-81dc-ee82570475ad"
        },
        "effectiveDateTime": "2024-01-01T00:00:00",
        "component": [
          {
            "code": {
              "coding": [
                {
                  "system": "http://loinc.org",
                  "code": "8480-6",
                  "display": "Systolic"
                }
              ]
            },
            "valueQuantity": {
              "value": 95.0,
              "unit": "mmHg"
            }
          },
          {
            "code": {
              "coding": [
                {
                  "system": "http://loinc.org",
                  "code": "8462-4",
                  "display": "Diastolic"
                }
              ]
            },
            "valueQuantity": {
              "value": 91.0,
              "unit": "mmHg"
            }
          }
        ]
      }
    },
    {
      "resource": {
        "resourceType": "Patient",
        "id": "94080492-7a3d-411a-9c7b-ab6e55667ebc",
        "name": [
          {
            "text": "Miranda Becker"
          }
        ],
        "telecom": [
          {
            "system": "email",
            "value": "wallacecynthia@example.com",
            "use": "home"
          }
        ],
        "gender": "female",
        "birthDate": "1971-07-25"
      }
    },
    {
      "resource": {
        "resourceType": "Observation",
        "status": "final",
        "code": {
          "coding": [
            {
              "system": "http://loinc.org",
              "code": "8867-4",
              "display": "Heart rate"
            }
          ]
        },
        "subject": {
          "reference": "Patient/94080492-7a3d-411a-9c7b-ab6e55667ebc"
        },
        "effectiveDateTime": "2024-01-01T00:00:00",
        "valueQuantity": {
          "value": 111.0,
          "unit": "beats/minute"
        }
      }
    },
    {
      "resource": {
        "resourceType": "Observation",
        "status": "final",
        "code": {
          "coding": [
            {
              "system": "http://loinc.org",
              "code": "85354-9",
              "display": "Blood pressure panel"
            }
          ]
        },
        "subject": {
          "reference": "Patient/94080492-7a3d-411a-9c7b-ab6e55667ebc"
        },
        "effectiveDateTime": "2024-01-01T00:00:00",
        "component": [
          {
            "code": {
              "coding": [
                {
                  "system": "http://loinc.org",
                  "code": "8480-6",
                  "display": "Systolic"
                }
              ]
            },
            "valueQuantity": {
              "value": 93.0,
              "unit": "mmHg"
            }
          },
          {
            "code": {
              "coding": [
                {
                  "system": "http://loinc.org",
                  "code": "8462-4",
                  "display": "Diastolic"
                }
              ]
            },
            "valueQuantity": {
              "value": 76.0,
              "unit": "mmHg"
            }
          }
        ]
      }
    },
    {
      "resource": {
        "resourceType": "Patient",
        "id": "30e1485c-614f-478e-806e-59552497ee1c",
        "name": [
          {
            "text": "Stephen Smith"
          }
        ],
        "telecom": [
          {
            "system": "email",
            "value": "linda20@example.net",
            "use": "home"
          }
        ],
        "gender": "male",
        "birthDate": "2009-10-09"
      }
    },
    {
      "resource": {
        "resourceType": "Observation",
        "status": "final",
        "code": {
          "coding": [
            {
              "system": "http://loinc.org",
              "code": "8867-4",
              "display": "Heart rate"
            }
          ]
        },
        "subject": {
          "reference": "Patient/30e1485c-614f-478e-806e-59552497ee1c"
        },
        "effectiveDateTime": "2024-01-01T00:00:00",
        "valueQuantity": {
          "value": 74.0,
          "unit": "beats/minute"
        }
      }
    },
    {
      "resource": {
        "resourceType": "Observation",
        "status": "final",
        "code": {
          "coding": [
            {
              "system": "http://loinc.org",
              "code": "85354-9",
              "display": "Blood pressure panel"
            }
          ]
        },
        "subject": {
          "reference": "Patient/30e1485c-614f-478e-806e-59552497ee1c"
        },
        "effectiveDateTime": "2024-01-01T00:00:00",
        "component": [
          {
            "code": {
              "coding": [
                {
                  "system": "http://loinc.org",
                  "code": "8480-6",
                  "display": "Systolic"
                }
              ]
            },
            "valueQuantity": {
              "value": 128.0,
              "unit": "mmHg"
            }
          },
          {
            "code": {
              "coding": [
                {
                  "system": "http://loinc.org",
                  "code": "8462-4",
                  "display": "Diastolic"
                }
              ]
            },
            "valueQuantity": {
              "value": 86.0,
              "unit": "mmHg"
            }
          }
        ]
      }
    },
    {
      "resource": {
        "resourceType": "Patient",
        "id": "a03e99c1-697d-4b69-a7f9-4f4c9d7b6de6",
        "name": [
          {
            "text": "Ms. Cheryl Garcia"
          }
        ],
        "telecom": [
          {
            "system": "email",
            "value": "carladouglas@example.net",
            "use": "home"
          }
        ],
        "gender": "male",
        "birthDate": "1964-10-05"
      }
    },
    {
      "resource": {
        "resourceType": "Observation",
        "status": "final",
        "code": {
          "coding": [
            {
              "system": "http://loinc.org",
              "code": "8867-4",
              "display": "Heart rate"
            }
          ]
        },
        "subject": {
          "reference": "Patient/a03e99c1-697d-4b69-a7f9-4f4c9d7b6de6"
        },
        "effectiveDateTime": "2024-01-01T00:00:00",
        "valueQuantity": {
          "value": 71.0,
          "unit": "beats/minute"
        }
      }
    },
    {
      "resource": {
        "resourceType": "Observation",
        "status": "final",
        "code": {
          "coding": [
            {
              "system": "http://loinc.org",
              "code": "85354-9",
              "display": "Blood pressure panel"
            }
          ]
        },
        "subject": {
          "reference": "Patient/a03e99c1-697d-4b69-a7f9-4f4c9d7b6de6"
        },
        "effectiveDateTime": "2024-01-01T00:00:00",
        "component": [
          {
            "code": {
              "coding": [
                {
                  "system": "http://loinc.org",
                  "code": "8480-6",
                  "display": "Systolic"
                }
              ]
            },
            "valueQuantity": {
              "value": 130.0,
              "unit": "mmHg"
            }
          },
          {
            "code": {
              "coding": [
                {
                  "system": "http://loinc.org",
                  "code": "8462-4",
                  "display": "Diastolic"
                }
              ]
            },
            "valueQuantity": {
              "value": 62.0,
              "unit": "mmHg"
            }
          }
        ]
      }
    },
    {
      "resource": {
        "resourceType": "Patient",
        "id": "c0445f0e-f779-4ea2-a00d-9224260af2d1",
        "name": [
          {
            "text": "Carrie Fitzpatrick"
          }
        ],
        "telecom": [
          {
            "system": "email",
            "value": "ernest16@example.org",
            "use": "home"
          }
        ],
        "gender": "male",
        "birthDate": "2002-08-02"
      }
    },
    {
      "resource": {
        "resourceType": "Observation",
        "status": "final",
        "code": {
          "coding": [
            {
              "system": "http://loinc.org",
              "code": "8867-4",
              "display": "Heart rate"
            }
          ]
        },
        "subject": {
          "reference": "Patient/c0445f0e-f779-4ea2-a00d-9224260af2d1"
        },
        "effectiveDateTime": "2024-01-01T00:00:00",
        "valueQuantity": {
          "value": 88.0,
          "unit": "beats/minute"
        }
      }
    },
    {
      "resource": {
        "resourceType": "Observation",
        "status": "final",
        "code": {
          "coding": [
            {
              "system": "http://loinc.org",
              "code": "85354-9",
              "display": "Blood pressure panel"
            }
          ]
        },
        "subject": {
          "reference": "Patient/c0445f0e-f779-4ea2-a00d-9224260af2d1"
        },
        "effectiveDateTime": "2024-01-01T00:00:00",
        "component": [
          {
            "code": {
              "coding": [
                {
                  "system": "http://loinc.org",
                  "code": "8480-6",
                  "display": "Systolic"
                }
              ]
            },
            "valueQuantity": {
              "value": 105.0,
              "unit": "mmHg"
            }
          },
          {
            "code": {
              "coding": [
                {
                  "system": "http://loinc.org",
                  "code": "8462-4",
                  "display": "Diastolic"
                }
              ]
            },
            "valueQuantity": {
              "value": 64.0,
              "unit": "mmHg"
            }
          }
        ]
      }
    },
    {
      "resource": {
        "resourceType": "Patient",
        "id": "b13a5fb9-1acc-44d5-a928-8044a4d32dc8",
        "name": [
          {
            "text": "Mr. Todd Myers"
          }
        ],
        "telecom": [
          {
            "system": "email",
            "value": "grayjoseph@example.net",
            "use": "home"
          }
        ],
        "gender": "other",
        "birthDate": "1949-08-30"
      }
    },
    {
      "resource": {
        "resourceType": "Observation",
        "status": "final",
        "code": {
          "coding": [
            {
              "system": "http://loinc.org",
              "code": "8867-4",
              "display": "Heart rate"
            }
          ]
        },
        "subject": {
          "reference": "Patient/b13a5fb9-1acc-44d5-a928-8044a4d32dc8"
        },
        "effectiveDateTime": "2024-01-01T00:00:00",
        "valueQuantity": {
          "value": 82.0,
          "unit": "beats/minute"
        }
      }
    },
    {
      "resource": {
        "resourceType": "Observation",
        "status": "final",
        "code": {
          "coding": [
            {
              "system": "http://loinc.org",
              "code": "85354-9",
              "display": "Blood pressure panel"
            }
          ]
        },
        "subject": {
          "reference": "Patient/b13a5fb9-1acc-44d5-a928-8044a4d32dc8"
        },
        "effectiveDateTime": "2024-01-01T00:00:00",
        "component": [
          {
            "code": {
              "coding": [
                {
                  "system": "http://loinc.org",
                  "code": "8480-6",
                  "display": "Systolic"
                }
              ]
            },
            "valueQuantity": {
              "value": 172.0,
              "unit": "mmHg"
            }
          },
          {
            "code": {
              "coding": [
                {
                  "system": "http://loinc.org",
                  "code": "8462-4",
                  "display": "Diastolic"
                }
              ]
            },
            "valueQuantity": {
              "value": 86.0,
              "unit": "mmHg"
            }
          }
        ]
      }
    },
    {
      "resource": {
        "resourceType": "Patient",
        "id": "02521b58-75a1-426e-9a94-b84c66a284d9",
        "name": [
          {
            "text": "Lisa Thomas"
          }
        ],
        "telecom": [
          {
            "system": "email",
            "value": "mooreamy@example.org",
            "use": "home"
          }
        ],
        "gender": "male",
        "birthDate": "1976-12-13"
      }
    },
    {
      "resource": {
        "resourceType": "Observation",
        "status": "final",
        "code": {
          "coding": [
            {
              "system": "http://loinc.org",
              "code": "8867-4",
              "display": "Heart rate"
            }
          ]
        },
        "subject": {
          "reference": "Patient/02521b58-75a1-426e-9a94-b84c66a284d9"
        },
        "effectiveDateTime": "2024-01-01T00:00:00",
        "valueQuantity": {
          "value": 94.0,
          "unit": "beats/minute"
        }
      }
    },
    {
      "resource": {
        "resourceType": "Observation",
        "status": "final",
        "code": {
          "coding": [
            {
              "system": "http://loinc.org",
              "code": "85354-9",
              "display": "Blood pressure panel"
            }
          ]
        },
        "subject": {
          "reference": "Patient/02521b58-75a1-426e-9a94-b84c66a284d9"
        },
        "effectiveDateTime": "2024-01-01T00:00:00",
        "component": [
          {
            "code": {
              "coding": [
                {
                  "system": "http://loinc.org",
                  "code": "8480-6",
                  "display": "Systolic"
                }
              ]
            },
            "valueQuantity": {
              "value": 107.0,
              "unit": "mmHg"
            }
          },
          {
            "code": {
              "coding": [
                {
                  "system": "http://loinc.org",
                  "code": "8462-4",
                  "display": "Diastolic"
                }
              ]
            },
            "valueQuantity": {
              "value": 63.0,
              "unit": "mmHg"
            }
          }
        ]
      }
    },
    {
      "resource": {
        "resourceType": "Patient",
        "id": "a6a5dab4-67ad-4a65-bc12-761789e36fa4",
        "name": [
          {
            "text": "Miss Katherine Torres"
          }
        ],
        "telecom": [
          {
            "system": "email",
            "value": "smithmariah@example.org",
            "use": "home"
          }
        ],
        "gender": "male",
        "birthDate": "1964-01-13"
      }
    },
    {
      "resource": {
        "resourceType": "Observation",
        "status": "final",
        "code": {
          "coding": [
            {
              "system": "http://loinc.org",
              "code": "8867-4",
              "display": "Heart rate"
            }
          ]
        },
        "subject": {
          "reference": "Patient/a6a5dab4-67ad-4a65-bc12-761789e36fa4"
        },
        "effectiveDateTime": "2024-01-01T00:00:00",
        "valueQuantity": {
          "value": 67.0,
          "unit": "beats/minute"
        }
      }
    },
    {
      "resource": {
        "resourceType": "Observation",
        "status": "final",
        "code": {
          "coding": [
            {
              "system": "http://loinc.org",
              "code": "85354-9",
              "display": "Blood pressure panel"
            }
          ]
        },
        "subject": {
          "reference": "Patient/a6a5dab4-67ad-4a65-bc12-761789e36fa4"
        },
        "effectiveDateTime": "2024-01-01T00:00:00",
        "component": [
          {
            "code": {
              "coding": [
                {
                  "system": "http://loinc.org",
                  "code": "8480-6",
                  "display": "Systolic"
                }
              ]
            },
            "valueQuantity": {
              "value": 163.0,
              "unit": "mmHg"
            }
          },
          {
            "code": {
              "coding": [
                {
                  "system": "http://loinc.org",
                  "code": "8462-4",
                  "display": "Diastolic"
                }
              ]
            },
            "valueQuantity": {
              "value": 80.0,
              "unit": "mmHg"
            }
          }
        ]
      }
    },
    {
      "resource": {
        "resourceType": "Patient",
        "id": "ded54b33-588a-4d32-b628-f7543645ed9d",
        "name": [
          {
            "text": "Brittany Salas"
          }
        ],
        "telecom": [
          {
            "system": "email",
            "value": "iwilliams@example.net",
            "use": "home"
          }
        ],
        "gender": "male",
        "birthDate": "2002-05-24"
      }
    },
    {
      "resource": {
        "resourceType": "Observation",
        "status": "final",
        "code": {
          "coding": [
            {
              "system": "http://loinc.org",
              "code": "8867-4",
              "display": "Heart rate"
            }
          ]
        },
        "subject": {
          "reference": "Patient/ded54b33-588a-4d32-b628-f7543645ed9d"
        },
        "effectiveDateTime": "2024-01-01T00:00:00",
        "valueQuantity": {
          "value": 108.0,
          "unit": "beats/minute"
        }
      }
    },
    {
      "resource": {
        "resourceType": "Observation",
        "status": "final",
        "code": {
          "coding": [
            {
              "system": "http://loinc.org",
              "code": "85354-9",
              "display": "Blood pressure panel"
            }
          ]
        },
        "subject": {
          "reference": "Patient/ded54b33-588a-4d32-b628-f7543645ed9d"
        },
        "effectiveDateTime": "2024-01-01T00:00:00",
        "component": [
          {
            "code": {
              "coding": [
                {
                  "system": "http://loinc.org",
                  "code": "8480-6",
                  "display": "Systolic"
                }
              ]
            },
            "valueQuantity": {
              "value": 108.0,
              "unit": "mmHg"
            }
          },
          {
            "code": {
              "coding": [
                {
                  "system": "http://loinc.org",
                  "code": "8462-4",
                  "display": "Diastolic"
                }
              ]
            },
            "valueQuantity": {
              "value": 69.0,
              "unit": "mmHg"
            }
          }
        ]
      }
    },
    {
      "resource": {
        "resourceType": "Patient",
        "id": "1d86fdea-e3cf-4434-b04c-c5a13dfbd7d9",
        "name": [
          {
            "text": "Donna Butler"
          }
        ],
        "telecom": [
          {
            "system": "email",
            "value": "hunterfrank@example.net",
            "use": "home"
          }
        ],
        "gender": "male",
        "birthDate": "1963-07-01"
      }
    },
    {
      "resource": {
        "resourceType": "Observation",
        "status": "final",
        "code": {
          "coding": [
            {
              "system": "http://loinc.org",
              "code": "8867-4",
              "display": "Heart rate"
            }
          ]
        },
        "subject": {
          "reference": "Patient/1d86fdea-e3cf-4434-b04c-c5a13dfbd7d9"
        },
        "effectiveDateTime": "2024-01-01T00:00:00",
        "valueQuantity": {
          "value": 105.0,
          "unit": "beats/minute"
        }
      }
    },
    {
      "resource": {
        "resourceType": "Observation",
        "status": "final",
        "code": {
          "coding": [
            {
              "system": "http://loinc.org",
              "code": "85354-9",
              "display": "Blood pressure panel"
            }
          ]
        },
        "subject": {
          "reference": "Patient/1d86fdea-e3cf-4434-b04c-c5a13dfbd7d9"
        },
        "effectiveDateTime": "2024-01-01T00:00:00",
        "component": [
          {
            "code": {
              "coding": [
                {
                  "system": "http://loinc.org",
                  "code": "8480-6",
                  "display": "Systolic"
                }
              ]
            },
            "valueQuantity": {
              "value": 138.0,
              "unit": "mmHg"
            }
          },
          {
            "code": {
              "coding": [
                {
                  "system": "http://loinc.org",
                  "code": "8462-4",
                  "display": "Diastolic"
                }
              ]
            },
            "valueQuantity": {
              "value": 62.0,
              "unit": "mmHg"
            }
          }
        ]
      }
    },
    {
      "resource": {
        "resourceType": "Patient",
        "id": "15489be5-df48-4185-8d92-74867e32220f",
        "name": [
          {
            "text": "Rachel Kennedy"
          }
        ],
        "telecom": [
          {
            "system": "email",
            "value": "btran@example.org",
            "use": "home"
          }
        ],
        "gender": "male",
        "birthDate": "2012-01-25"
      }
    },
    {
      "resource": {
        "resourceType": "Observation",
        "status": "final",
        "code": {
          "coding": [
            {
              "system": "http://loinc.org",
              "code": "8867-4",
              "display": "Heart rate"
            }
          ]
        },
        "subject": {
          "reference": "Patient/15489be5-df48-4185-8d92-74867e32220f"
        },
        "effectiveDateTime": "2024-01-01T00:00:00",
        "valueQuantity": {
          "value": 90.0,
          "unit": "beats/minute"
        }
      }
    },
    {
      "resource": {
        "resourceType": "Observation",
        "status": "final",
        "code": {
          "coding": [
            {
              "system": "http://loinc.org",
              "code": "85354-9",
              "display": "Blood pressure panel"
            }
          ]
        },
        "subject": {
          "reference": "Patient/15489be5-df48-4185-8d92-74867e32220f"
        },
        "effectiveDateTime": "2024-01-01T00:00:00",
        "component": [
          {
            "code": {
              "coding": [
                {
                  "system": "http://loinc.org",
                  "code": "8480-6",
                  "display": "Systolic"
                }
              ]
            },
            "valueQuantity": {
              "value": 154.0,
              "unit": "mmHg"
            }
          },
          {
            "code": {
              "coding": [
                {
                  "system": "http://loinc.org",
                  "code": "8462-4",
                  "display": "Diastolic"
                }
              ]
            },
            "valueQuantity": {
              "value": 63.0,
              "unit": "mmHg"
            }
          }
        ]
      }
    },
    {
      "resource": {
        "resourceType": "Patient",
        "id": "a00fdefe-ba77-4914-b82f-affa90bd3c3c",
        "name": [
          {
            "text": "Alyssa Jones"
          }
        ],
        "telecom": [
          {
            "system": "email",
            "value": "garymason@example.com",
            "use": "home"
          }
        ],
        "gender": "other",
        "birthDate": "2018-01-04"
      }
    },
    {
      "resource": {
        "resourceType": "Observation",
        "status": "final",
        "code": {
          "coding": [
            {
              "system": "http://loinc.org",
              "code": "8867-4",
              "display": "Heart rate"
            }
          ]
        },
        "subject": {
          "reference": "Patient/a00fdefe-ba77-4914-b82f-affa90bd3c3c"
        },
        "effectiveDateTime": "2024-01-01T00:00:00",
        "valueQuantity": {
          "value": 64.0,
          "unit": "beats/minute"
        }
      }
    },
    {
      "resource": {
        "resourceType": "Observation",
        "status": "final",
        "code": {
          "coding": [
            {
              "system": "http://loinc.org",
              "code": "85354-9",
              "display": "Blood pressure panel"
            }
          ]
        },
        "subject": {
          "reference": "Patient/a00fdefe-ba77-4914-b82f-affa90bd3c3c"
        },
        "effectiveDateTime": "2024-01-01T00:00:00",
        "component": [
          {
            "code": {
              "coding": [
                {
                  "system": "http://loinc.org",
                  "code": "8480-6",
                  "display": "Systolic"
                }
              ]
            },
            "valueQuantity": {
              "value": 174.0,
              "unit": "mmHg"
            }
          },
          {
            "code": {
              "coding": [
                {
                  "system": "http://loinc.org",
                  "code": "8462-4",
                  "display": "Diastolic"
                }
              ]
            },
            "valueQuantity": {
              "value": 97.0,
              "unit": "mmHg"
            }
          }
        ]
      }
    },
    {
      "resource": {
        "resourceType": "Patient",
        "id": "cd6df561-16aa-4656-960f-2edced69a35e",
        "name": [
          {
            "text": "Melissa Evans"
          }
        ],
        "telecom": [
          {
            "system": "email",
            "value": "mercadojacob@example.org",
            "use": "home"
          }
        ],
        "gender": "female",
        "birthDate": "1946-09-07"
      }
    },
    {
      "resource": {
        "resourceType": "Observation",
        "status": "final",
        "code": {
          "coding": [
            {
              "system": "http://loinc.org",
              "code": "8867-4",
              "display": "Heart rate"
            }
          ]
        },
        "subject": {
          "reference": "Patient/cd6df561-16aa-4656-960f-2edced69a35e"
        },
        "effectiveDateTime": "2024-01-01T00:00:00",
        "valueQuantity": {
          "value": 65.0,
          "unit": "beats/minute"
        }
      }
    },
    {
      "resource": {
        "resourceType": "Observation",
        "status": "final",
        "code": {
          "coding": [
            {
              "system": "http://loinc.org",
              "code": "85354-9",
              "display": "Blood pressure panel"
            }
          ]
        },
        "subject": {
          "reference": "Patient/cd6df561-16aa-4656-960f-2edced69a35e"
        },
        "effectiveDateTime": "2024-01-01T00:00:00",
        "component": [
          {
            "code": {
              "coding": [
                {
                  "system": "http://loinc.org",
                  "code": "8480-6",
                  "display": "Systolic"
                }
              ]
            },
            "valueQuantity": {
              "value": 117.0,
              "unit": "mmHg"
            }
          },
          {
            "code": {
              "coding": [
                {
                  "system": "http://loinc.org",
                  "code": "8462-4",
                  "display": "Diastolic"
                }
              ]
            },
            "valueQuantity": {
              "value": 84.0,
              "unit": "mmHg"
            }
          }
        ]
      }
    },
    {
      "resource": {
        "resourceType": "Patient",
        "id": "ad3a86a1-f276-4e73-810f-75324706f6c3",
        "name": [
          {
            "text": "Hunter Myers"
          }
        ],
        "telecom": [
          {
            "system": "email",
            "value": "zhughes@example.org",
            "use": "home"
          }
        ],
        "gender": "other",
        "birthDate": "1998-01-23"
      }
    },
    {
      "resource": {
        "resourceType": "Observation",
        "status": "final",
        "code": {
          "coding": [
            {
              "system": "http://loinc.org",
              "code": "8867-4",
              "display": "Heart rate"
            }
          ]
        },
        "subject": {
          "reference": "Patient/ad3a86a1-f276-4e73-810f-75324706f6c3"
        },
        "effectiveDateTime": "2024-01-01T00:00:00",
        "valueQuantity": {
          "value": 90.0,
          "unit": "beats/minute"
        }
      }
    },
    {
      "resource": {
        "resourceType": "Observation",
        "status": "final",
        "code": {
          "coding": [
            {
              "system": "http://loinc.org",
              "code": "85354-9",
              "display": "Blood pressure panel"
            }
          ]
        },
        "subject": {
          "reference": "Patient/ad3a86a1-f276-4e73-810f-75324706f6c3"
        },
        "effectiveDateTime": "2024-01-01T00:00:00",
        "component": [
          {
            "code": {
              "coding": [
                {
                  "system": "http://loinc.org",
                  "code": "8480-6",
                  "display": "Systolic"
                }
              ]
            },
            "valueQuantity": {
              "value": 158.0,
              "unit": "mmHg"
            }
          },
          {
            "code": {
              "coding": [
                {
                  "system": "http://loinc.org",
                  "code": "8462-4",
                  "display": "Diastolic"
                }
              ]
            },
            "valueQuantity": {
              "value": 97.0,
              "unit": "mmHg"
            }
          }
        ]
      }
    },
    {
      "resource": {
        "resourceType": "Patient",
        "id": "06fde8ec-1445-4f59-b5c2-f272469ed2ef",
        "name": [
          {
            "text": "Jennifer Alvarado"
          }
        ],
        "telecom": [
          {
            "system": "email",
            "value": "matthewneal@example.org",
            "use": "home"
          }
        ],
        "gender": "male",
        "birthDate": "1978-06-25"
      }
    },
    {
      "resource": {
        "resourceType": "Observation",
        "status": "final",
        "code": {
          "coding": [
            {
              "system": "http://loinc.org",
              "code": "8867-4",
              "display": "Heart rate"
            }
          ]
        },
        "subject": {
          "reference": "Patient/06fde8ec-1445-4f59-b5c2-f272469ed2ef"
        },
        "effectiveDateTime": "2024-01-01T00:00:00",
        "valueQuantity": {
          "value": 89.0,
          "unit": "beats/minute"
        }
      }
    },
    {
      "resource": {
        "resourceType": "Observation",
        "status": "final",
        "code": {
          "coding": [
            {
              "system": "http://loinc.org",
              "code": "85354-9",
              "display": "Blood pressure panel"
            }
          ]
        },
        "subject": {
          "reference": "Patient/06fde8ec-1445-4f59-b5c2-f272469ed2ef"
        },
        "effectiveDateTime": "2024-01-01T00:00:00",
        "component": [
          {
            "code": {
              "coding": [
                {
                  "system": "http://loinc.org",
                  "code": "8480-6",
                  "display": "Systolic"
                }
              ]
            },
            "valueQuantity": {
              "value": 161.0,
              "unit": "mmHg"
            }
          },
          {
            "code": {
              "coding": [
                {
                  "system": "http://loinc.org",
                  "code": "8462-4",
                  "display": "Diastolic"
                }
              ]
            },
            "valueQuantity": {
              "value": 95.0,
              "unit": "mmHg"
            }
          }
        ]
      }
    },
    {
      "resource": {
        "resourceType": "Patient",
        "id": "d6abcdf9-a0e6-431e-b686-123a09ec68ba",
        "name": [
          {
            "text": "Pamela Caldwell"
          }
        ],
        "telecom": [
          {
            "system": "email",
            "value": "jaredthompson@example.org",
            "use": "home"
          }
        ],
        "gender": "female",
        "birthDate": "1973-11-07"
      }
    },
    {
      "resource": {
        "resourceType": "Observation",
        "status": "final",
        "code": {
          "coding": [
            {
              "system": "http://loinc.org",
              "code": "8867-4",
              "display": "Heart rate"
            }
          ]
        },
        "subject": {
          "reference": "Patient/d6abcdf9-a0e6-431e-b686-123a09ec68ba"
        },
        "effectiveDateTime": "2024-01-01T00:00:00",
        "valueQuantity": {
          "value": 86.0,
          "unit": "beats/minute"
        }
      }
    },
    {
      "resource": {
        "resourceType": "Observation",
        "status": "final",
        "code": {
          "coding": [
            {
              "system": "http://loinc.org",
              "code": "85354-9",
              "display": "Blood pressure panel"
            }
          ]
        },
        "subject": {
          "reference": "Patient/d6abcdf9-a0e6-431e-b686-123a09ec68ba"
        },
        "effectiveDateTime": "2024-01-01T00:00:00",
        "component": [
          {
            "code": {
              "coding": [
                {
                  "system": "http://loinc.org",
                  "code": "8480-6",
                  "display": "Systolic"
                }
              ]
            },
            "valueQuantity": {
              "value": 145.0,
              "unit": "mmHg"
            }
          },
          {
            "code": {
              "coding": [
                {
                  "system": "http://loinc.org",
                  "code": "8462-4",
                  "display": "Diastolic"
                }
              ]
            },
            "valueQuantity": {
              "value": 60.0,
              "unit": "mmHg"
            }
          }
        ]
      }
    },
    {
      "resource": {
        "resourceType": "Patient",
        "id": "e8d164b9-8294-4f8f-b245-a42e9bef1e02",
        "name": [
          {
            "text": "Elizabeth Owens"
          }
        ],
        "telecom": [
          {
            "system": "email",
            "value": "megandaugherty@example.org",
            "use": "home"
          }
        ],
        "gender": "other",
        "birthDate": "1994-08-31"
      }
    },
    {
      "resource": {
        "resourceType": "Observation",
        "status": "final",
        "code": {
          "coding": [
            {
              "system": "http://loinc.org",
              "code": "8867-4",
              "display": "Heart rate"
            }
          ]
        },
        "subject": {
          "reference": "Patient/e8d164b9-8294-4f8f-b245-a42e9bef1e02"
        },
        "effectiveDateTime": "2024-01-01T00:00:00",
        "valueQuantity": {
          "value": 108.0,
          "unit": "beats/minute"
        }
      }
    },
    {
      "resource": {
        "resourceType": "Observation",
        "status": "final",
        "code": {
          "coding": [
            {
              "system": "http://loinc.org",
              "code": "85354-9",
              "display": "Blood pressure panel"
            }
          ]
        },
        "subject": {
          "reference": "Patient/e8d164b9-8294-4f8f-b245-a42e9bef1e02"
        },
        "effectiveDateTime": "2024-01-01T00:00:00",
        "component": [
          {
            "code": {
              "coding": [
                {
                  "system": "http://loinc.org",
                  "code": "8480-6",
                  "display": "Systolic"
                }
              ]
            },
            "valueQuantity": {
              "value": 142.0,
              "unit": "mmHg"
            }
          },
          {
            "code": {
              "coding": [
                {
                  "system": "http://loinc.org",
                  "code": "8462-4",
                  "display": "Diastolic"
                }
              ]
            },
            "valueQuantity": {
              "value": 93.0,
              "unit": "mmHg"
            }
          }
        ]
      }
    },
    {
      "resource": {
        "resourceType": "Patient",
        "id": "4b868fbb-9e6a-4947-b34f-0653d711da31",
        "name": [
          {
            "text": "Mr. Andre Fry"
          }
        ],
        "telecom": [
          {
            "system": "email",
            "value": "mdiaz@example.org",
            "use": "home"
          }
        ],
        "gender": "other",
        "birthDate": "1984-01-12"
      }
    },
    {
      "resource": {
        "resourceType": "Observation",
        "status": "final",
        "code": {
          "coding": [
            {
              "system": "http://loinc.org",
              "code": "8867-4",
              "display": "Heart rate"
            }
          ]
        },
        "subject": {
          "reference": "Patient/4b868fbb-9e6a-4947-b34f-0653d711da31"
        },
        "effectiveDateTime": "2024-01-01T00:00:00",
        "valueQuantity": {
          "value": 82.0,
          "unit": "beats/minute"
        }
      }
    },
    {
      "resource": {
        "resourceType": "Observation",
        "status": "final",
        "code": {
          "coding": [
            {
              "system": "http://loinc.org",
              "code": "85354-9",
              "display": "Blood pressure panel"
            }
          ]
        },
        "subject": {
          "reference": "Patient/4b868fbb-9e6a-4947-b34f-0653d711da31"
        },
        "effectiveDateTime": "2024-01-01T00:00:00",
        "component": [
          {
            "code": {
              "coding": [
                {
                  "system": "http://loinc.org",
                  "code": "8480-6",
                  "display": "Systolic"
                }
              ]
            },
            "valueQuantity": {
              "value": 155.0,
              "unit": "mmHg"
            }
          },
          {
            "code": {
              "coding": [
                {
                  "system": "http://loinc.org",
                  "code": "8462-4",
                  "display": "Diastolic"
                }
              ]
            },
            "valueQuantity": {
              "value": 72.0,
              "unit": "mmHg"
            }
          }
        ]
      }
    },
    {
      "resource": {
        "resourceType": "Patient",
        "id": "284c78b8-978a-44b1-b62f-8856939d618e",
        "name": [
          {
            "text": "Kristin Krueger"
          }
        ],
        "telecom": [
          {
            "system": "email",
            "value": "pricebrian@example.org",
            "use": "home"
          }
        ],
        "gender": "female",
        "birthDate": "1968-12-09"
      }
    },
    {
      "resource": {
        "resourceType": "Observation",
        "status": "final",
        "code": {
          "coding": [
            {
              "system": "http://loinc.org",
              "code": "8867-4",
              "display": "Heart rate"
            }
          ]
        },
        "subject": {
          "reference": "Patient/284c78b8-978a-44b1-b62f-8856939d618e"
        },
        "effectiveDateTime": "2024-01-01T00:00:00",
        "valueQuantity": {
          "value": 107.0,
          "unit": "beats/minute"
        }
      }
    },
    {
      "resource": {
        "resourceType": "Observation",
        "status": "final",
        "code": {
          "coding": [
            {
              "system": "http://loinc.org",
              "code": "85354-9",
              "display": "Blood pressure panel"
            }
          ]
        },
        "subject": {
          "reference": "Patient/284c78b8-978a-44b1-b62f-8856939d618e"
        },
        "effectiveDateTime": "2024-01-01T00:00:00",
        "component": [
          {
            "code": {
              "coding": [
                {
                  "system": "http://loinc.org",
                  "code": "8480-6",
                  "display": "Systolic"
                }
              ]
            },
            "valueQuantity": {
              "value": 113.0,
              "unit": "mmHg"
            }
          },
          {
            "code": {
              "coding": [
                {
                  "system": "http://loinc.org",
                  "code": "8462-4",
                  "display": "Diastolic"
                }
              ]
            },
            "valueQuantity": {
              "value": 67.0,
              "unit": "mmHg"
            }
          }
        ]
      }
    },
    {
      "resource": {
        "resourceType": "Patient",
        "id": "e0768b11-8baa-43c1-a80c-83d78eb8a7cf",
        "name": [
          {
            "text": "Mark Harris"
          }
        ],
        "telecom": [
          {
            "system": "email",
            "value": "mark31@example.com",
            "use": "home"
          }
        ],
        "gender": "other",
        "birthDate": "2021-12-31"
      }
    },
    {
      "resource": {
        "resourceType": "Observation",
        "status": "final",
        "code": {
          "coding": [
            {
              "system": "http://loinc.org",
              "code": "8867-4",
              "display": "Heart rate"
            }
          ]
        },
        "subject": {
          "reference": "Patient/e0768b11-8baa-43c1-a80c-83d78eb8a7cf"
        },
        "effectiveDateTime": "2024-01-01T00:00:00",
        "valueQuantity": {
          "value": 104.0,
          "unit": "beats/minute"
        }
      }
    },
    {
      "resource": {
        "resourceType": "Observation",
        "status": "final",
        "code": {
          "coding": [
            {
              "system": "http://loinc.org",
              "code": "85354-9",
              "display": "Blood pressure panel"
            }
          ]
        },
        "subject": {
          "reference": "Patient/e0768b11-8baa-43c1-a80c-83d78eb8a7cf"
        },
        "effectiveDateTime": "2024-01-01T00:00:00",
        "component": [
          {
            "code": {
              "coding": [
                {
                  "system": "http://loinc.org",
                  "code": "8480-6",
                  "display": "Systolic"
                }
              ]
            },
            "valueQuantity": {
              "value": 121.0,
              "unit": "mmHg"
            }
          },
          {
            "code": {
              "coding": [
                {
                  "system": "http://loinc.org",
                  "code": "8462-4",
                  "display": "Diastolic"
                }
              ]
            },
            "valueQuantity": {
              "value": 98.0,
              "unit": "mmHg"
            }
          }
        ]
      }
    },
    {
      "resource": {
        "resourceType": "Patient",
        "id": "474e2a58-93c2-4f7d-8e7f-98b96827cfae",
        "name": [
          {
            "text": "Troy Anderson"
          }
        ],
        "telecom": [
          {
            "system": "email",
            "value": "fpeters@example.org",
            "use": "home"
          }
        ],
        "gender": "male",
        "birthDate": "2003-01-05"
      }
    },
    {
      "resource": {
        "resourceType": "Observation",
        "status": "final",
        "code": {
          "coding": [
            {
              "system": "http://loinc.org",
              "code": "8867-4",
              "display": "Heart rate"
            }
          ]
        },
        "subject": {
          "reference": "Patient/474e2a58-93c2-4f7d-8e7f-98b96827cfae"
        },
        "effectiveDateTime": "2024-01-01T00:00:00",
        "valueQuantity": {
          "value": 78.0,
          "unit": "beats/minute"
        }
      }
    },
    {
      "resource": {
        "resourceType": "Observation",
        "status": "final",
        "code": {
          "coding": [
            {
              "system": "http://loinc.org",
              "code": "85354-9",
              "display": "Blood pressure panel"
            }
          ]
        },
        "subject": {
          "reference": "Patient/474e2a58-93c2-4f7d-8e7f-98b96827cfae"
        },
        "effectiveDateTime": "2024-01-01T00:00:00",
        "component": [
          {
            "code": {
              "coding": [
                {
                  "system": "http://loinc.org",
                  "code": "8480-6",
                  "display": "Systolic"
                }
              ]
            },
            "valueQuantity": {
              "value": 151.0,
              "unit": "mmHg"
            }
          },
          {
            "code": {
              "coding": [
                {
                  "system": "http://loinc.org",
                  "code": "8462-4",
                  "display": "Diastolic"
                }
              ]
            },
            "valueQuantity": {
              "value": 73.0,
              "unit": "mmHg"
            }
          }
        ]
      }
    },
    {
      "resource": {
        "resourceType": "Patient",
        "id": "28ba57cc-644b-4607-8a2f-cba523c4127b",
        "name": [
          {
            "text": "Donald Jackson"
          }
        ],
        "telecom": [
          {
            "system": "email",
            "value": "emilyjohnson@example.net",
            "use": "home"
          }
        ],
        "gender": "female",
        "birthDate": "1958-03-15"
      }
    },
    {
      "resource": {
        "resourceType": "Observation",
        "status": "final",
        "code": {
          "coding": [
            {
              "system": "http://loinc.org",
              "code": "8867-4",
              "display": "Heart rate"
            }
          ]
        },
        "subject": {
          "reference": "Patient/28ba57cc-644b-4607-8a2f-cba523c4127b"
        },
        "effectiveDateTime": "2024-01-01T00:00:00",
        "valueQuantity": {
          "value": 88.0,
          "unit": "beats/minute"
        }
      }
    },
    {
      "resource": {
        "resourceType": "Observation",
        "status": "final",
        "code": {
          "coding": [
            {
              "system": "http://loinc.org",
              "code": "85354-9",
              "display": "Blood pressure panel"
            }
          ]
        },
        "subject": {
          "reference": "Patient/28ba57cc-644b-4607-8a2f-cba523c4127b"
        },
        "effectiveDateTime": "2024-01-01T00:00:00",
        "component": [
          {
            "code": {
              "coding": [
                {
                  "system": "http://loinc.org",
                  "code": "8480-6",
                  "display": "Systolic"
                }
              ]
            },
            "valueQuantity": {
              "value": 139.0,
              "unit": "mmHg"
            }
          },
          {
            "code": {
              "coding": [
                {
                  "system": "http://loinc.org",
                  "code": "8462-4",
                  "display": "Diastolic"
                }
              ]
            },
            "valueQuantity": {
              "value": 84.0,
              "unit": "mmHg"
            }
          }
        ]
      }
    },
    {
      "resource": {
        "resourceType": "Patient",
        "id": "1ccf0bf4-fa7a-402c-88b6-28c440a000f6",
        "name": [
          {
            "text": "David Sweeney DDS"
          }
        ],
        "telecom": [
          {
            "system": "email",
            "value": "hamiltonjay@example.net",
            "use": "home"
          }
        ],
        "gender": "female",
        "birthDate": "1940-04-12"
      }
    },
    {
      "resource": {
        "resourceType": "Observation",
        "status": "final",
        "code": {
          "coding": [
            {
              "system": "http://loinc.org",
              "code": "8867-4",
              "display": "Heart rate"
            }
          ]
        },
        "subject": {
          "reference": "Patient/1ccf0bf4-fa7a-402c-88b6-28c440a000f6"
        },
        "effectiveDateTime": "2024-01-01T00:00:00",
        "valueQuantity": {
          "value": 105.0,
          "unit": "beats/minute"
        }
      }
    },
    {
      "resource": {
        "resourceType": "Observation",
        "status": "final",
        "code": {
          "coding": [
            {
              "system": "http://loinc.org",
              "code": "85354-9",
              "display": "Blood pressure panel"
            }
          ]
        },
        "subject": {
          "reference": "Patient/1ccf0bf4-fa7a-402c-88b6-28c440a000f6"
        },
        "effectiveDateTime": "2024-01-01T00:00:00",
        "component": [
          {
            "code": {
              "coding": [
                {
                  "system": "http://loinc.org",
                  "code": "8480-6",
                  "display": "Systolic"
                }
              ]
            },
            "valueQuantity": {
              "value": 99.0,
              "unit": "mmHg"
            }
          },
          {
            "code": {
              "coding": [
                {
                  "system": "http://loinc.org",
                  "code": "8462-4",
                  "display": "Diastolic"
                }
              ]
            },
            "valueQuantity": {
              "value": 81.0,
              "unit": "mmHg"
            }
          }
        ]
      }
    },
    {
      "resource": {
        "resourceType": "Patient",
        "id": "7e4b6bad-3766-419b-bba5-c2211d21aad3",
        "name": [
          {
            "text": "Dustin Pineda"
          }
        ],
        "telecom": [
          {
            "system": "email",
            "value": "psmith@example.org",
            "use": "home"
          }
        ],
        "gender": "female",
        "birthDate": "1960-01-24"
      }
    },
    {
      "resource": {
        "resourceType": "Observation",
        "status": "final",
        "code": {
          "coding": [
            {
              "system": "http://loinc.org",
              "code": "8867-4",
              "display": "Heart rate"
            }
          ]
        },
        "subject": {
          "reference": "Patient/7e4b6bad-3766-419b-bba5-c2211d21aad3"
        },
        "effectiveDateTime": "2024-01-01T00:00:00",
        "valueQuantity": {
          "value": 84.0,
          "unit": "beats/minute"
        }
      }
    },
    {
      "resource": {
        "resourceType": "Observation",
        "status": "final",
        "code": {
          "coding": [
            {
              "system": "http://loinc.org",
              "code": "85354-9",
              "display": "Blood pressure panel"
            }
          ]
        },
        "subject": {
          "reference": "Patient/7e4b6bad-3766-419b-bba5-c2211d21aad3"
        },
        "effectiveDateTime": "2024-01-01T00:00:00",
        "component": [
          {
            "code": {
              "coding": [
                {
                  "system": "http://loinc.org",
                  "code": "8480-6",
                  "display": "Systolic"
                }
              ]
            },
            "valueQuantity": {
              "value": 134.0,
              "unit": "mmHg"
            }
          },
          {
            "code": {
              "coding": [
                {
                  "system": "http://loinc.org",
                  "code": "8462-4",
                  "display": "Diastolic"
                }
              ]
            },
            "valueQuantity": {
              "value": 75.0,
              "unit": "mmHg"
            }
          }
        ]
      }
    },
    {
      "resource": {
        "resourceType": "Patient",
        "id": "e7b0f19b-9e79-4b83-b565-0e690608a26a",
        "name": [
          {
            "text": "Lisa Santos"
          }
        ],
        "telecom": [
          {
            "system": "email",
            "value": "jodi11@example.com",
            "use": "home"
          }
        ],
        "gender": "female",
        "birthDate": "2011-05-09"
      }
    },
    {
      "resource": {
        "resourceType": "Observation",
        "status": "final",
        "code": {
          "coding": [
            {
              "system": "http://loinc.org",
              "code": "8867-4",
              "display": "Heart rate"
            }
          ]
        },
        "subject": {
          "reference": "Patient/e7b0f19b-9e79-4b83-b565-0e690608a26a"
        },
        "effectiveDateTime": "2024-01-01T00:00:00",
        "valueQuantity": {
          "value": 99.0,
          "unit": "beats/minute"
        }
      }
    },
    {
      "resource": {
        "resourceType": "Observation",
        "status": "final",
        "code": {
          "coding": [
            {
              "system": "http://loinc.org",
              "code": "85354-9",
              "display": "Blood pressure panel"
            }
          ]
        },
        "subject": {
          "reference": "Patient/e7b0f19b-9e79-4b83-b565-0e690608a26a"
        },
        "effectiveDateTime": "2024-01-01T00:00:00",
        "component": [
          {
            "code": {
              "coding": [
                {
                  "system": "http://loinc.org",
                  "code": "8480-6",
                  "display": "Systolic"
                }
              ]
            },
            "valueQuantity": {
              "value": 116.0,
              "unit": "mmHg"
            }
          },
          {
            "code": {
              "coding": [
                {
                  "system": "http://loinc.org",
                  "code": "8462-4",
                  "display": "Diastolic"
                }
              ]
            },
            "valueQuantity": {
              "value": 65.0,
              "unit": "mmHg"
            }
          }
        ]
      }
    },
    {
      "resource": {
        "resourceType": "Patient",
        "id": "aa7a7462-d628-4cf0-84f9-8bc0250ad2d1",
        "name": [
          {
            "text": "Jennifer Gray"
          }
        ],
        "telecom": [
          {
            "system": "email",
            "value": "moorephilip@example.com",
            "use": "home"
          }
        ],
        "gender": "female",
        "birthDate": "1949-08-12"
      }
    },
    {
      "resource": {
        "resourceType": "Observation",
        "status": "final",
        "code": {
          "coding": [
            {
              "system": "http://loinc.org",
              "code": "8867-4",
              "display": "Heart rate"
            }
          ]
        },
        "subject": {
          "reference": "Patient/aa7a7462-d628-4cf0-84f9-8bc0250ad2d1"
        },
        "effectiveDateTime": "2024-01-01T00:00:00",
        "valueQuantity": {
          "value": 61.0,
          "unit": "beats/minute"
        }
      }
    },
    {
      "resource": {
        "resourceType": "Observation",
        "status": "final",
        "code": {
          "coding": [
            {
              "system": "http://loinc.org",
              "code": "85354-9",
              "display": "Blood pressure panel"
            }
          ]
        },
        "subject": {
          "reference": "Patient/aa7a7462-d628-4cf0-84f9-8bc0250ad2d1"
        },
        "effectiveDateTime": "2024-01-01T00:00:00",
        "component": [
          {
            "code": {
              "coding": [
                {
                  "system": "http://loinc.org",
                  "code": "8480-6",
                  "display": "Systolic"
                }
              ]
            },
            "valueQuantity": {
              "value": 139.0,
              "unit": "mmHg"
            }
          },
          {
            "code": {
              "coding": [
                {
                  "system": "http://loinc.org",
                  "code": "8462-4",
                  "display": "Diastolic"
                }
              ]
            },
            "valueQuantity": {
              "value": 94.0,
              "unit": "mmHg"
            }
          }
        ]
      }
    },
    {
      "resource": {
        "resourceType": "Patient",
        "id": "80890791-b3ae-4544-82c2-3e0fe856a294",
        "name": [
          {
            "text": "Samuel Michael"
          }
        ],
        "telecom": [
          {
            "system": "email",
            "value": "billy88@example.net",
            "use": "home"
          }
        ],
        "gender": "male",
        "birthDate": "1963-03-20"
      }
    },
    {
      "resource": {
        "resourceType": "Observation",
        "status": "final",
        "code": {
          "coding": [
            {
              "system": "http://loinc.org",
              "code": "8867-4",
              "display": "Heart rate"
            }
          ]
        },
        "subject": {
          "reference": "Patient/80890791-b3ae-4544-82c2-3e0fe856a294"
        },
        "effectiveDateTime": "2024-01-01T00:00:00",
        "valueQuantity": {
          "value": 58.0,
          "unit": "beats/minute"
        }
      }
    },
    {
      "resource": {
        "resourceType": "Observation",
        "status": "final",
        "code": {
          "coding": [
            {
              "system": "http://loinc.org",
              "code": "85354-9",
              "display": "Blood pressure panel"
            }
          ]
        },
        "subject": {
          "reference": "Patient/80890791-b3ae-4544-82c2-3e0fe856a294"
        },
        "effectiveDateTime": "2024-01-01T00:00:00",
        "component": [
          {
            "code": {
              "coding": [
                {
                  "system": "http://loinc.org",
                  "code": "8480-6",
                  "display": "Systolic"
                }
              ]
            },
            "valueQuantity": {
              "value": 108.0,
              "unit": "mmHg"
            }
          },
          {
            "code": {
              "coding": [
                {
                  "system": "http://loinc.org",
                  "code": "8462-4",
                  "display": "Diastolic"
                }
              ]
            },
            "valueQuantity": {
              "value": 82.0,
              "unit": "mmHg"
            }
          }
        ]
      }
    },
    {
      "resource": {
        "resourceType": "Patient",
        "id": "9d5c3ea8-cadc-40db-b48f-faf36c969e0d",
        "name": [
          {
            "text": "Andrew Perry"
          }
        ],
        "telecom": [
          {
            "system": "email",
            "value": "melissawells@example.com",
            "use": "home"
          }
        ],
        "gender": "male",
        "birthDate": "2021-11-29"
      }
    },
    {
      "resource": {
        "resourceType": "Observation",
        "status": "final",
        "code": {
          "coding": [
            {
              "system": "http://loinc.org",
              "code": "8867-4",
              "display": "Heart rate"
            }
          ]
        },
        "subject": {
          "reference": "Patient/9d5c3ea8-cadc-40db-b48f-faf36c969e0d"
        },
        "effectiveDateTime": "2024-01-01T00:00:00",
        "valueQuantity": {
          "value": 62.0,
          "unit": "beats/minute"
        }
      }
    },
    {
      "resource": {
        "resourceType": "Observation",
        "status": "final",
        "code": {
          "coding": [
            {
              "system": "http://loinc.org",
              "code": "85354-9",
              "display": "Blood pressure panel"
            }
          ]
        },
        "subject": {
          "reference": "Patient/9d5c3ea8-cadc-40db-b48f-faf36c969e0d"
        },
        "effectiveDateTime": "2024-01-01T00:00:00",
        "component": [
          {
            "code": {
              "coding": [
                {
                  "system": "http://loinc.org",
                  "code": "8480-6",
                  "display": "Systolic"
                }
              ]
            },
            "valueQuantity": {
              "value": 120.0,
              "unit": "mmHg"
            }
          },
          {
            "code": {
              "coding": [
                {
                  "system": "http://loinc.org",
                  "code": "8462-4",
                  "display": "Diastolic"
                }
              ]
            },
            "valueQuantity": {
              "value": 90.0,
              "unit": "mmHg"
            }
          }
        ]
      }
    },
    {
      "resource": {
        "resourceType": "Patient",
        "id": "4f324f12-0bfc-401f-a045-d7f803b0adb3",
        "name": [
          {
            "text": "Ronald Butler"
          }
        ],
        "telecom": [
          {
            "system": "email",
            "value": "rmoore@example.org",
            "use": "home"
          }
        ],
        "gender": "other",
        "birthDate": "1956-09-21"
      }
    },
    {
      "resource": {
        "resourceType": "Observation",
        "status": "final",
        "code": {
          "coding": [
            {
              "system": "http://loinc.org",
              "code": "8867-4",
              "display": "Heart rate"
            }
          ]
        },
        "subject": {
          "reference": "Patient/4f324f12-0bfc-401f-a045-d7f803b0adb3"
        },
        "effectiveDateTime": "2024-01-01T00:00:00",
        "valueQuantity": {
          "value": 61.0,
          "unit": "beats/minute"
        }
      }
    },
    {
      "resource": {
        "resourceType": "Observation",
        "status": "final",
        "code": {
          "coding": [
            {
              "system": "http://loinc.org",
              "code": "85354-9",
              "display": "Blood pressure panel"
            }
          ]
        },
        "subject": {
          "reference": "Patient/4f324f12-0bfc-401f-a045-d7f803b0adb3"
        },
        "effectiveDateTime": "2024-01-01T00:00:00",
        "component": [
          {
            "code": {
              "coding": [
                {
                  "system": "http://loinc.org",
                  "code": "8480-6",
                  "display": "Systolic"
                }
              ]
            },
            "valueQuantity": {
              "value": 169.0,
              "unit": "mmHg"
            }
          },
          {
            "code": {
              "coding": [
                {
                  "system": "http://loinc.org",
                  "code": "8462-4",
                  "display": "Diastolic"
                }
              ]
            },
            "valueQuantity": {
              "value": 88.0,
              "unit": "mmHg"
            }
          }
        ]
      }
    },
    {
      "resource": {
        "resourceType": "Patient",
        "id": "4c0b9989-97bd-4f21-ab51-db955e1819f9",
        "name": [
          {
            "text": "Colin Scott"
          }
        ],
        "telecom": [
          {
            "system": "email",
            "value": "wongpatricia@example.com",
            "use": "home"
          }
        ],
        "gender": "other",
        "birthDate": "1956-01-26"
      }
    },
    {
      "resource": {
        "resourceType": "Observation",
        "status": "final",
        "code": {
          "coding": [
            {
              "system": "http://loinc.org",
              "code": "8867-4",
              "display": "Heart rate"
            }
          ]
        },
        "subject": {
          "reference": "Patient/4c0b9989-97bd-4f21-ab51-db955e1819f9"
        },
        "effectiveDateTime": "2024-01-01T00:00:00",
        "valueQuantity": {
          "value": 99.0,
          "unit": "beats/minute"
        }
      }
    },
    {
      "resource": {
        "resourceType": "Observation",
        "status": "final",
        "code": {
          "coding": [
            {
              "system": "http://loinc.org",
              "code": "85354-9",
              "display": "Blood pressure panel"
            }
          ]
        },
        "subject": {
          "reference": "Patient/4c0b9989-97bd-4f21-ab51-db955e1819f9"
        },
        "effectiveDateTime": "2024-01-01T00:00:00",
        "component": [
          {
            "code": {
              "coding": [
                {
                  "system": "http://loinc.org",
                  "code": "8480-6",
                  "display": "Systolic"
                }
              ]
            },
            "valueQuantity": {
              "value": 159.0,
              "unit": "mmHg"
            }
          },
          {
            "code": {
              "coding": [
                {
                  "system": "http://loinc.org",
                  "code": "8462-4",
                  "display": "Diastolic"
                }
              ]
            },
            "valueQuantity": {
              "value": 76.0,
              "unit": "mmHg"
            }
          }
        ]
      }
    },
    {
      "resource": {
        "resourceType": "Patient",
        "id": "12ef7b1d-0063-4f5e-8f01-27472143c002",
        "name": [
          {
            "text": "Rachel Flores"
          }
        ],
        "telecom": [
          {
            "system": "email",
            "value": "fholland@example.com",
            "use": "home"
          }
        ],
        "gender": "other",
        "birthDate": "2003-10-19"
      }
    },
    {
      "resource": {
        "resourceType": "Observation",
        "status": "final",
        "code": {
          "coding": [
            {
              "system": "http://loinc.org",
              "code": "8867-4",
              "display": "Heart rate"
            }
          ]
        },
        "subject": {
          "reference": "Patient/12ef7b1d-0063-4f5e-8f01-27472143c002"
        },
        "effectiveDateTime": "2024-01-01T00:00:00",
        "valueQuantity": {
          "value": 86.0,
          "unit": "beats/minute"
        }
      }
    },
    {
      "resource": {
        "resourceType": "Observation",
        "status": "final",
        "code": {
          "coding": [
            {
              "system": "http://loinc.org",
              "code": "85354-9",
              "display": "Blood pressure panel"
            }
          ]
        },
        "subject": {
          "reference": "Patient/12ef7b1d-0063-4f5e-8f01-27472143c002"
        },
        "effectiveDateTime": "2024-01-01T00:00:00",
        "component": [
          {
            "code": {
              "coding": [
                {
                  "system": "http://loinc.org",
                  "code": "8480-6",
                  "display": "Systolic"
                }
              ]
            },
            "valueQuantity": {
              "value": 130.0,
              "unit": "mmHg"
            }
          },
          {
            "code": {
              "coding": [
                {
                  "system": "http://loinc.org",
                  "code": "8462-4",
                  "display": "Diastolic"
                }
              ]
            },
            "valueQuantity": {
              "value": 76.0,
              "unit": "mmHg"
            }
          }
        ]
      }
    },
    {
      "resource": {
        "resourceType": "Patient",
        "id": "a24e7f08-51fd-4a35-ba57-7d148897837a",
        "name": [
          {
            "text": "Latoya Johns"
          }
        ],
        "telecom": [
          {
            "system": "email",
            "value": "johnsmith@example.net",
            "use": "home"
          }
        ],
        "gender": "male",
        "birthDate": "1972-09-11"
      }
    },
    {
      "resource": {
        "resourceType": "Observation",
        "status": "final",
        "code": {
          "coding": [
            {
              "system": "http://loinc.org",
              "code": "8867-4",
              "display": "Heart rate"
            }
          ]
        },
        "subject": {
          "reference": "Patient/a24e7f08-51fd-4a35-ba57-7d148897837a"
        },
        "effectiveDateTime": "2024-01-01T00:00:00",
        "valueQuantity": {
          "value": 112.0,
          "unit": "beats/minute"
        }
      }
    },
    {
      "resource": {
        "resourceType": "Observation",
        "status": "final",
        "code": {
          "coding": [
            {
              "system": "http://loinc.org",
              "code": "85354-9",
              "display": "Blood pressure panel"
            }
          ]
        },
        "subject": {
          "reference": "Patient/a24e7f08-51fd-4a35-ba57-7d148897837a"
        },
        "effectiveDateTime": "2024-01-01T00:00:00",
        "component": [
          {
            "code": {
              "coding": [
                {
                  "system": "http://loinc.org",
                  "code": "8480-6",
                  "display": "Systolic"
                }
              ]
            },
            "valueQuantity": {
              "value": 124.0,
              "unit": "mmHg"
            }
          },
          {
            "code": {
              "coding": [
                {
                  "system": "http://loinc.org",
                  "code": "8462-4",
                  "display": "Diastolic"
                }
              ]
            },
            "valueQuantity": {
              "value": 81.0,
              "unit": "mmHg"
            }
          }
        ]
      }
    },
    {
      "resource": {
        "resourceType": "Patient",
        "id": "a9d43941-789c-48c7-ac1f-dcec840f5498",
        "name": [
          {
            "text": "Thomas Franklin"
          }
        ],
        "telecom": [
          {
            "system": "email",
            "value": "mathewsjohn@example.org",
            "use": "home"
          }
        ],
        "gender": "male",
        "birthDate": "1947-08-05"
      }
    },
    {
      "resource": {
        "resourceType": "Observation",
        "status": "final",
        "code": {
          "coding": [
            {
              "system": "http://loinc.org",
              "code": "8867-4",
              "display": "Heart rate"
            }
          ]
        },
        "subject": {
          "reference": "Patient/a9d43941-789c-48c7-ac1f-dcec840f5498"
        },
        "effectiveDateTime": "2024-01-01T00:00:00",
        "valueQuantity": {
          "value": 109.0,
          "unit": "beats/minute"
        }
      }
    },
    {
      "resource": {
        "resourceType": "Observation",
        "status": "final",
        "code": {
          "coding": [
            {
              "system": "http://loinc.org",
              "code": "85354-9",
              "display": "Blood pressure panel"
            }
          ]
        },
        "subject": {
          "reference": "Patient/a9d43941-789c-48c7-ac1f-dcec840f5498"
        },
        "effectiveDateTime": "2024-01-01T00:00:00",
        "component": [
          {
            "code": {
              "coding": [
                {
                  "system": "http://loinc.org",
                  "code": "8480-6",
                  "display": "Systolic"
                }
              ]
            },
            "valueQuantity": {
              "value": 153.0,
              "unit": "mmHg"
            }
          },
          {
            "code": {
              "coding": [
                {
                  "system": "http://loinc.org",
                  "code": "8462-4",
                  "display": "Diastolic"
                }
              ]
            },
            "valueQuantity": {
              "value": 94.0,
              "unit": "mmHg"
            }
          }
        ]
      }
    },
    {
      "resource": {
        "resourceType": "Patient",
        "id": "482f1699-27e1-44b8-b2ad-6a3f9d8c7503",
        "name": [
          {
            "text": "Melissa Mullen"
          }
        ],
        "telecom": [
          {
            "system": "email",
            "value": "nicholas10@example.net",
            "use": "home"
          }
        ],
        "gender": "other",
        "birthDate": "1972-09-17"
      }
    },
    {
      "resource": {
        "resourceType": "Observation",
        "status": "final",
        "code": {
          "coding": [
            {
              "system": "http://loinc.org",
              "code": "8867-4",
              "display": "Heart rate"
            }
          ]
        },
        "subject": {
          "reference": "Patient/482f1699-27e1-44b8-b2ad-6a3f9d8c7503"
        },
        "effectiveDateTime": "2024-01-01T00:00:00",
        "valueQuantity": {
          "value": 72.0,
          "unit": "beats/minute"
        }
      }
    },
    {
      "resource": {
        "resourceType": "Observation",
        "status": "final",
        "code": {
          "coding": [
            {
              "system": "http://loinc.org",
              "code": "85354-9",
              "display": "Blood pressure panel"
            }
          ]
        },
        "subject": {
          "reference": "Patient/482f1699-27e1-44b8-b2ad-6a3f9d8c7503"
        },
        "effectiveDateTime": "2024-01-01T00:00:00",
        "component": [
          {
            "code": {
              "coding": [
                {
                  "system": "http://loinc.org",
                  "code": "8480-6",
                  "display": "Systolic"
                }
              ]
            },
            "valueQuantity": {
              "value": 147.0,
              "unit": "mmHg"
            }
          },
          {
            "code": {
              "coding": [
                {
                  "system": "http://loinc.org",
                  "code": "8462-4",
                  "display": "Diastolic"
                }
              ]
            },
            "valueQuantity": {
              "value": 67.0,
              "unit": "mmHg"
            }
          }
        ]
      }
    },
    {
      "resource": {
        "resourceType": "Patient",
        "id": "d4d535d8-1841-40a0-91a5-abac99a832a8",
        "name": [
          {
            "text": "Tabitha Williams"
          }
        ],
        "telecom": [
          {
            "system": "email",
            "value": "harry46@example.com",
            "use": "home"
          }
        ],
        "gender": "female",
        "birthDate": "1991-11-18"
      }
    },
    {
      "resource": {
        "resourceType": "Observation",
        "status": "final",
        "code": {
          "coding": [
            {
              "system": "http://loinc.org",
              "code": "8867-4",
              "display": "Heart rate"
            }
          ]
        },
        "subject": {
          "reference": "Patient/d4d535d8-1841-40a0-91a5-abac99a832a8"
        },
        "effectiveDateTime": "2024-01-01T00:00:00",
        "valueQuantity": {
          "value": 80.0,
          "unit": "beats/minute"
        }
      }
    },
    {
      "resource": {
        "resourceType": "Observation",
        "status": "final",
        "code": {
          "coding": [
            {
              "system": "http://loinc.org",
              "code": "85354-9",
              "display": "Blood pressure panel"
            }
          ]
        },
        "subject": {
          "reference": "Patient/d4d535d8-1841-40a0-91a5-abac99a832a8"
        },
        "effectiveDateTime": "2024-01-01T00:00:00",
        "component": [
          {
            "code": {
              "coding": [
                {
                  "system": "http://loinc.org",
                  "code": "8480-6",
                  "display": "Systolic"
                }
              ]
            },
            "valueQuantity": {
              "value": 173.0,
              "unit": "mmHg"
            }
          },
          {
            "code": {
              "coding": [
                {
                  "system": "http://loinc.org",
                  "code": "8462-4",
                  "display": "Diastolic"
                }
              ]
            },
            "valueQuantity": {
              "value": 87.0,
              "unit": "mmHg"
            }
          }
        ]
      }
    },
    {
      "resource": {
        "resourceType": "Patient",
        "id": "84ef6dc6-282c-4c21-a25c-772a70e38824",
        "name": [
          {
            "text": "Katherine Fuller"
          }
        ],
        "telecom": [
          {
            "system": "email",
            "value": "brendan40@example.com",
            "use": "home"
          }
        ],
        "gender": "other",
        "birthDate": "1941-03-24"
      }
    },
    {
      "resource": {
        "resourceType": "Observation",
        "status": "final",
        "code": {
          "coding": [
            {
              "system": "http://loinc.org",
              "code": "8867-4",
              "display": "Heart rate"
            }
          ]
        },
        "subject": {
          "reference": "Patient/84ef6dc6-282c-4c21-a25c-772a70e38824"
        },
        "effectiveDateTime": "2024-01-01T00:00:00",
        "valueQuantity": {
          "value": 63.0,
          "unit": "beats/minute"
        }
      }
    },
    {
      "resource": {
        "resourceType": "Observation",
        "status": "final",
        "code": {
          "coding": [
            {
              "system": "http://loinc.org",
              "code": "85354-9",
              "display": "Blood pressure panel"
            }
          ]
        },
        "subject": {
          "reference": "Patient/84ef6dc6-282c-4c21-a25c-772a70e38824"
        },
        "effectiveDateTime": "2024-01-01T00:00:00",
        "component": [
          {
            "code": {
              "coding": [
                {
                  "system": "http://loinc.org",
                  "code": "8480-6",
                  "display": "Systolic"
                }
              ]
            },
            "valueQuantity": {
              "value": 116.0,
              "unit": "mmHg"
            }
          },
          {
            "code": {
              "coding": [
                {
                  "system": "http://loinc.org",
                  "code": "8462-4",
                  "display": "Diastolic"
                }
              ]
            },
            "valueQuantity": {
              "value": 95.0,
              "unit": "mmHg"
            }
          }
        ]
      }
    },
    {
      "resource": {
        "resourceType": "Patient",
        "id": "9c657bd1-869f-4cc8-9b32-b92b4aef672a",
        "name": [
          {
            "text": "Laurie Ramirez"
          }
        ],
        "telecom": [
          {
            "system": "email",
            "value": "williamstheresa@example.org",
            "use": "home"
          }
        ],
        "gender": "male",
        "birthDate": "2001-02-04"
      }
    },
    {
      "resource": {
        "resourceType": "Observation",
        "status": "final",
        "code": {
          "coding": [
            {
              "system": "http://loinc.org",
              "code": "8867-4",
              "display": "Heart rate"
            }
          ]
        },
        "subject": {
          "reference": "Patient/9c657bd1-869f-4cc8-9b32-b92b4aef672a"
        },
        "effectiveDateTime": "2024-01-01T00:00:00",
        "valueQuantity": {
          "value": 74.0,
          "unit": "beats/minute"
        }
      }
    },
    {
      "resource": {
        "resourceType": "Observation",
        "status": "final",
        "code": {
          "coding": [
            {
              "system": "http://loinc.org",
              "code": "85354-9",
              "display": "Blood pressure panel"
            }
          ]
        },
        "subject": {
          "reference": "Patient/9c657bd1-869f-4cc8-9b32-b92b4aef672a"
        },
        "effectiveDateTime": "2024-01-01T00:00:00",
        "component": [
          {
            "code": {
              "coding": [
                {
                  "system": "http://loinc.org",
                  "code": "8480-6",
                  "display": "Systolic"
                }
              ]
            },
            "valueQuantity": {
              "value": 121.0,
              "unit": "mmHg"
            }
          },
          {
            "code": {
              "coding": [
                {
                  "system": "http://loinc.org",
                  "code": "8462-4",
                  "display": "Diastolic"
                }
              ]
            },
            "valueQuantity": {
              "value": 72.0,
              "unit": "mmHg"
            }
          }
        ]
      }
    },
    {
      "resource": {
        "resourceType": "Patient",
        "id": "f0069855-ebbc-490f-b6b4-ba03e6f03ca4",
        "name": [
          {
            "text": "Colin Medina"
          }
        ],
        "telecom": [
          {
            "system": "email",
            "value": "sanchezsally@example.com",
            "use": "home"
          }
        ],
        "gender": "female",
        "birthDate": "1958-10-26"
      }
    },
    {
      "resource": {
        "resourceType": "Observation",
        "status": "final",
        "code": {
          "coding": [
            {
              "system": "http://loinc.org",
              "code": "8867-4",
              "display": "Heart rate"
            }
          ]
        },
        "subject": {
          "reference": "Patient/f0069855-ebbc-490f-b6b4-ba03e6f03ca4"
        },
        "effectiveDateTime": "2024-01-01T00:00:00",
        "valueQuantity": {
          "value": 71.0,
          "unit": "beats/minute"
        }
      }
    },
    {
      "resource": {
        "resourceType": "Observation",
        "status": "final",
        "code": {
          "coding": [
            {
              "system": "http://loinc.org",
              "code": "85354-9",
              "display": "Blood pressure panel"
            }
          ]
        },
        "subject": {
          "reference": "Patient/f0069855-ebbc-490f-b6b4-ba03e6f03ca4"
        },
        "effectiveDateTime": "2024-01-01T00:00:00",
        "component": [
          {
            "code": {
              "coding": [
                {
                  "system": "http://loinc.org",
                  "code": "8480-6",
                  "display": "Systolic"
                }
              ]
            },
            "valueQuantity": {
              "value": 154.0,
              "unit": "mmHg"
            }
          },
          {
            "code": {
              "coding": [
                {
                  "system": "http://loinc.org",
                  "code": "8462-4",
                  "display": "Diastolic"
                }
              ]
            },
            "valueQuantity": {
              "value": 73.0,
              "unit": "mmHg"
            }
          }
        ]
      }
    },
    {
      "resource": {
        "resourceType": "Patient",
        "id": "d2958505-c822-45ea-bfc7-6a0c85b65b46",
        "name": [
          {
            "text": "Denise Bishop"
          }
        ],
        "telecom": [
          {
            "system": "email",
            "value": "lukebaker@example.org",
            "use": "home"
          }
        ],
        "gender": "other",
        "birthDate": "1995-09-08"
      }
    },
    {
      "resource": {
        "resourceType": "Observation",
        "status": "final",
        "code": {
          "coding": [
            {
              "system": "http://loinc.org",
              "code": "8867-4",
              "display": "Heart rate"
            }
          ]
        },
        "subject": {
          "reference": "Patient/d2958505-c822-45ea-bfc7-6a0c85b65b46"
        },
        "effectiveDateTime": "2024-01-01T00:00:00",
        "valueQuantity": {
          "value": 70.0,
          "unit": "beats/minute"
        }
      }
    },
    {
      "resource": {
        "resourceType": "Observation",
        "status": "final",
        "code": {
          "coding": [
            {
              "system": "http://loinc.org",
              "code": "85354-9",
              "display": "Blood pressure panel"
            }
          ]
        },
        "subject": {
          "reference": "Patient/d2958505-c822-45ea-bfc7-6a0c85b65b46"
        },
        "effectiveDateTime": "2024-01-01T00:00:00",
        "component": [
          {
            "code": {
              "coding": [
                {
                  "system": "http://loinc.org",
                  "code": "8480-6",
                  "display": "Systolic"
                }
              ]
            },
            "valueQuantity": {
              "value": 108.0,
              "unit": "mmHg"
            }
          },
          {
            "code": {
              "coding": [
                {
                  "system": "http://loinc.org",
                  "code": "8462-4",
                  "display": "Diastolic"
                }
              ]
            },
            "valueQuantity": {
              "value": 93.0,
              "unit": "mmHg"
            }
          }
        ]
      }
    },
    {
      "resource": {
        "resourceType": "Patient",
        "id": "cf86d1fa-7589-41d4-94f4-8f0ace9a4921",
        "name": [
          {
            "text": "Clifford Clark"
          }
        ],
        "telecom": [
          {
            "system": "email",
            "value": "ajohnson@example.org",
            "use": "home"
          }
        ],
        "gender": "other",
        "birthDate": "1941-12-13"
      }
    },
    {
      "resource": {
        "resourceType": "Observation",
        "status": "final",
        "code": {
          "coding": [
            {
              "system": "http://loinc.org",
              "code": "8867-4",
              "display": "Heart rate"
            }
          ]
        },
        "subject": {
          "reference": "Patient/cf86d1fa-7589-41d4-94f4-8f0ace9a4921"
        },
        "effectiveDateTime": "2024-01-01T00:00:00",
        "valueQuantity": {
          "value": 84.0,
          "unit": "beats/minute"
        }
      }
    },
    {
      "resource": {
        "resourceType": "Observation",
        "status": "final",
        "code": {
          "coding": [
            {
              "system": "http://loinc.org",
              "code": "85354-9",
              "display": "Blood pressure panel"
            }
          ]
        },
        "subject": {
          "reference": "Patient/cf86d1fa-7589-41d4-94f4-8f0ace9a4921"
        },
        "effectiveDateTime": "2024-01-01T00:00:00",
        "component": [
          {
            "code": {
              "coding": [
                {
                  "system": "http://loinc.org",
                  "code": "8480-6",
                  "display": "Systolic"
                }
              ]
            },
            "valueQuantity": {
              "value": 144.0,
              "unit": "mmHg"
            }
          },
          {
            "code": {
              "coding": [
                {
                  "system": "http://loinc.org",
                  "code": "8462-4",
                  "display": "Diastolic"
                }
              ]
            },
            "valueQuantity": {
              "value": 98.0,
              "unit": "mmHg"
            }
          }
        ]
      }
    },
    {
      "resource": {
        "resourceType": "Patient",
        "id": "0bc36274-599d-46b6-bb4f-761c03b7c9c5",
        "name": [
          {
            "text": "Lisa Chen"
          }
        ],
        "telecom": [
          {
            "system": "email",
            "value": "christopherwilliams@example.org",
            "use": "home"
          }
        ],
        "gender": "other",
        "birthDate": "1960-08-15"
      }
    },
    {
      "resource": {
        "resourceType": "Observation",
        "status": "final",
        "code": {
          "coding": [
            {
              "system": "http://loinc.org",
              "code": "8867-4",
              "display": "Heart rate"
            }
          ]
        },
        "subject": {
          "reference": "Patient/0bc36274-599d-46b6-bb4f-761c03b7c9c5"
        },
        "effectiveDateTime": "2024-01-01T00:00:00",
        "valueQuantity": {
          "value": 81.0,
          "unit": "beats/minute"
        }
      }
    },
    {
      "resource": {
        "resourceType": "Observation",
        "status": "final",
        "code": {
          "coding": [
            {
              "system": "http://loinc.org",
              "code": "85354-9",
              "display": "Blood pressure panel"
            }
          ]
        },
        "subject": {
          "reference": "Patient/0bc36274-599d-46b6-bb4f-761c03b7c9c5"
        },
        "effectiveDateTime": "2024-01-01T00:00:00",
        "component": [
          {
            "code": {
              "coding": [
                {
                  "system": "http://loinc.org",
                  "code": "8480-6",
                  "display": "Systolic"
                }
              ]
            },
            "valueQuantity": {
              "value": 157.0,
              "unit": "mmHg"
            }
          },
          {
            "code": {
              "coding": [
                {
                  "system": "http://loinc.org",
                  "code": "8462-4",
                  "display": "Diastolic"
                }
              ]
            },
            "valueQuantity": {
              "value": 96.0,
              "unit": "mmHg"
            }
          }
        ]
      }
    },
    {
      "resource": {
        "resourceType": "Patient",
        "id": "cb58fbb9-e703-425d-b3cd-b3e875e13336",
        "name": [
          {
            "text": "Michael Holden"
          }
        ],
        "telecom": [
          {
            "system": "email",
            "value": "ofrederick@example.net",
            "use": "home"
          }
        ],
        "gender": "male",
        "birthDate": "1985-04-07"
      }
    },
    {
      "resource": {
        "resourceType": "Observation",
        "status": "final",
        "code": {
          "coding": [
            {
              "system": "http://loinc.org",
              "code": "8867-4",
              "display": "Heart rate"
            }
          ]
        },
        "subject": {
          "reference": "Patient/cb58fbb9-e703-425d-b3cd-b3e875e13336"
        },
        "effectiveDateTime": "2024-01-01T00:00:00",
        "valueQuantity": {
          "value": 57.0,
          "unit": "beats/minute"
        }
      }
    },
    {
      "resource": {
        "resourceType": "Observation",
        "status": "final",
        "code": {
          "coding": [
            {
              "system": "http://loinc.org",
              "code": "85354-9",
              "display": "Blood pressure panel"
            }
          ]
        },
        "subject": {
          "reference": "Patient/cb58fbb9-e703-425d-b3cd-b3e875e13336"
        },
        "effectiveDateTime": "2024-01-01T00:00:00",
        "component": [
          {
            "code": {
              "coding": [
                {
                  "system": "http://loinc.org",
                  "code": "8480-6",
                  "display": "Systolic"
                }
              ]
            },
            "valueQuantity": {
              "value": 135.0,
              "unit": "mmHg"
            }
          },
          {
            "code": {
              "coding": [
                {
                  "system": "http://loinc.org",
                  "code": "8462-4",
                  "display": "Diastolic"
                }
              ]
            },
            "valueQuantity": {
              "value": 91.0,
              "unit": "mmHg"
            }
          }
        ]
      }
    },
    {
      "resource": {
        "resourceType": "Patient",
        "id": "7deababf-0418-4d22-aef7-f2664a2923d1",
        "name": [
          {
            "text": "Carolyn Goodwin"
          }
        ],
        "telecom": [
          {
            "system": "email",
            "value": "earl09@example.net",
            "use": "home"
          }
        ],
        "gender": "female",
        "birthDate": "1972-07-10"
      }
    },
    {
      "resource": {
        "resourceType": "Observation",
        "status": "final",
        "code": {
          "coding": [
            {
              "system": "http://loinc.org",
              "code": "8867-4",
              "display": "Heart rate"
            }
          ]
        },
        "subject": {
          "reference": "Patient/7deababf-0418-4d22-aef7-f2664a2923d1"
        },
        "effectiveDateTime": "2024-01-01T00:00:00",
        "valueQuantity": {
          "value": 98.0,
          "unit": "beats/minute"
        }
      }
    },
    {
      "resource": {
        "resourceType": "Observation",
        "status": "final",
        "code": {
          "coding": [
            {
              "system": "http://loinc.org",
              "code": "85354-9",
              "display": "Blood pressure panel"
            }
          ]
        },
        "subject": {
          "reference": "Patient/7deababf-0418-4d22-aef7-f2664a2923d1"
        },
        "effectiveDateTime": "2024-01-01T00:00:00",
        "component": [
          {
            "code": {
              "coding": [
                {
                  "system": "http://loinc.org",
                  "code": "8480-6",
                  "display": "Systolic"
                }
              ]
            },
            "valueQuantity": {
              "value": 144.0,
              "unit": "mmHg"
            }
          },
          {
            "code": {
              "coding": [
                {
                  "system": "http://loinc.org",
                  "code": "8462-4",
                  "display": "Diastolic"
                }
              ]
            },
            "valueQuantity": {
              "value": 99.0,
              "unit": "mmHg"
            }
          }
        ]
      }
    },
    {
      "resource": {
        "resourceType": "Patient",
        "id": "6f56d9b1-bd52-41a4-bb6c-a5247409c992",
        "name": [
          {
            "text": "Trevor Espinoza"
          }
        ],
        "telecom": [
          {
            "system": "email",
            "value": "dpatterson@example.net",
            "use": "home"
          }
        ],
        "gender": "male",
        "birthDate": "2017-09-30"
      }
    },
    {
      "resource": {
        "resourceType": "Observation",
        "status": "final",
        "code": {
          "coding": [
            {
              "system": "http://loinc.org",
              "code": "8867-4",
              "display": "Heart rate"
            }
          ]
        },
        "subject": {
          "reference": "Patient/6f56d9b1-bd52-41a4-bb6c-a5247409c992"
        },
        "effectiveDateTime": "2024-01-01T00:00:00",
        "valueQuantity": {
          "value": 61.0,
          "unit": "beats/minute"
        }
      }
    },
    {
      "resource": {
        "resourceType": "Observation",
        "status": "final",
        "code": {
          "coding": [
            {
              "system": "http://loinc.org",
              "code": "85354-9",
              "display": "Blood pressure panel"
            }
          ]
        },
        "subject": {
          "reference": "Patient/6f56d9b1-bd52-41a4-bb6c-a5247409c992"
        },
        "effectiveDateTime": "2024-01-01T00:00:00",
        "component": [
          {
            "code": {
              "coding": [
                {
                  "system": "http://loinc.org",
                  "code": "8480-6",
                  "display": "Systolic"
                }
              ]
            },
            "valueQuantity": {
              "value": 98.0,
              "unit": "mmHg"
            }
          },
          {
            "code": {
              "coding": [
                {
                  "system": "http://loinc.org",
                  "code": "8462-4",
                  "display": "Diastolic"
                }
              ]
            },
            "valueQuantity": {
              "value": 79.0,
              "unit": "mmHg"
            }
          }
        ]
      }
    },
    {
      "resource": {
        "resourceType": "Patient",
        "id": "2257a897-dbaf-4fe6-8edc-1a64ecc4f786",
        "name": [
          {
            "text": "James Weiss"
          }
        ],
        "telecom": [
          {
            "system": "email",
            "value": "matthew42@example.com",
            "use": "home"
          }
        ],
        "gender": "female",
        "birthDate": "1958-12-29"
      }
    },
    {
      "resource": {
        "resourceType": "Observation",
        "status": "final",
        "code": {
          "coding": [
            {
              "system": "http://loinc.org",
              "code": "8867-4",
              "display": "Heart rate"
            }
          ]
        },
        "subject": {
          "reference": "Patient/2257a897-dbaf-4fe6-8edc-1a64ecc4f786"
        },
        "effectiveDateTime": "2024-01-01T00:00:00",
        "valueQuantity": {
          "value": 54.0,
          "unit": "beats/minute"
        }
      }
    },
    {
      "resource": {
        "resourceType": "Observation",
        "status": "final",
        "code": {
          "coding": [
            {
              "system": "http://loinc.org",
              "code": "85354-9",
              "display": "Blood pressure panel"
            }
          ]
        },
        "subject": {
          "reference": "Patient/2257a897-dbaf-4fe6-8edc-1a64ecc4f786"
        },
        "effectiveDateTime": "2024-01-01T00:00:00",
        "component": [
          {
            "code": {
              "coding": [
                {
                  "system": "http://loinc.org",
                  "code": "8480-6",
                  "display": "Systolic"
                }
              ]
            },
            "valueQuantity": {
              "value": 164.0,
              "unit": "mmHg"
            }
          },
          {
            "code": {
              "coding": [
                {
                  "system": "http://loinc.org",
                  "code": "8462-4",
                  "display": "Diastolic"
                }
              ]
            },
            "valueQuantity": {
              "value": 68.0,
              "unit": "mmHg"
            }
          }
        ]
      }
    },
    {
      "resource": {
        "resourceType": "Patient",
        "id": "04ab63b5-e1a6-4157-affc-ef825d709061",
        "name": [
          {
            "text": "Christopher Torres"
          }
        ],
        "telecom": [
          {
            "system": "email",
            "value": "becky14@example.net",
            "use": "home"
          }
        ],
        "gender": "male",
        "birthDate": "2003-05-11"
      }
    },
    {
      "resource": {
        "resourceType": "Observation",
        "status": "final",
        "code": {
          "coding": [
            {
              "system": "http://loinc.org",
              "code": "8867-4",
              "display": "Heart rate"
            }
          ]
        },
        "subject": {
          "reference": "Patient/04ab63b5-e1a6-4157-affc-ef825d709061"
        },
        "effectiveDateTime": "2024-01-01T00:00:00",
        "valueQuantity": {
          "value": 110.0,
          "unit": "beats/minute"
        }
      }
    },
    {
      "resource": {
        "resourceType": "Observation",
        "status": "final",
        "code": {
          "coding": [
            {
              "system": "http://loinc.org",
              "code": "85354-9",
              "display": "Blood pressure panel"
            }
          ]
        },
        "subject": {
          "reference": "Patient/04ab63b5-e1a6-4157-affc-ef825d709061"
        },
        "effectiveDateTime": "2024-01-01T00:00:00",
        "component": [
          {
            "code": {
              "coding": [
                {
                  "system": "http://loinc.org",
                  "code": "8480-6",
                  "display": "Systolic"
                }
              ]
            },
            "valueQuantity": {
              "value": 138.0,
              "unit": "mmHg"
            }
          },
          {
            "code": {
              "coding": [
                {
                  "system": "http://loinc.org",
                  "code": "8462-4",
                  "display": "Diastolic"
                }
              ]
            },
            "valueQuantity": {
              "value": 76.0,
              "unit": "mmHg"
            }
          }
        ]
      }
    },
    {
      "resource": {
        "resourceType": "Patient",
        "id": "be9dbb00-e6cd-4ea9-b25c-d4336adc9ee3",
        "name": [
          {
            "text": "Timothy Burton"
          }
        ],
        "telecom": [
          {
            "system": "email",
            "value": "alexander65@example.org",
            "use": "home"
          }
        ],
        "gender": "other",
        "birthDate": "1940-10-13"
      }
    },
    {
      "resource": {
        "resourceType": "Observation",
        "status": "final",
        "code": {
          "coding": [
            {
              "system": "http://loinc.org",
              "code": "8867-4",
              "display": "Heart rate"
            }
          ]
        },
        "subject": {
          "reference": "Patient/be9dbb00-e6cd-4ea9-b25c-d4336adc9ee3"
        },
        "effectiveDateTime": "2024-01-01T00:00:00",
        "valueQuantity": {
          "value": 88.0,
          "unit": "beats/minute"
        }
      }
    },
    {
      "resource": {
        "resourceType": "Observation",
        "status": "final",
        "code": {
          "coding": [
            {
              "system": "http://loinc.org",
              "code": "85354-9",
              "display": "Blood pressure panel"
            }
          ]
        },
        "subject": {
          "reference": "Patient/be9dbb00-e6cd-4ea9-b25c-d4336adc9ee3"
        },
        "effectiveDateTime": "2024-01-01T00:00:00",
        "component": [
          {
            "code": {
              "coding": [
                {
                  "system": "http://loinc.org",
                  "code": "8480-6",
                  "display": "Systolic"
                }
              ]
            },
            "valueQuantity": {
              "value": 105.0,
              "unit": "mmHg"
            }
          },
          {
            "code": {
              "coding": [
                {
                  "system": "http://loinc.org",
                  "code": "8462-4",
                  "display": "Diastolic"
                }
              ]
            },
            "valueQuantity": {
              "value": 91.0,
              "unit": "mmHg"
            }
          }
        ]
      }
    },
    {
      "resource": {
        "resourceType": "Patient",
        "id": "47e57dc6-b80a-4b9a-98cc-1a9a81a0c920",
        "name": [
          {
            "text": "Holly Roberts"
          }
        ],
        "telecom": [
          {
            "system": "email",
            "value": "ireynolds@example.org",
            "use": "home"
          }
        ],
        "gender": "female",
        "birthDate": "1967-06-11"
      }
    },
    {
      "resource": {
        "resourceType": "Observation",
        "status": "final",
        "code": {
          "coding": [
            {
              "system": "http://loinc.org",
              "code": "8867-4",
              "display": "Heart rate"
            }
          ]
        },
        "subject": {
          "reference": "Patient/47e57dc6-b80a-4b9a-98cc-1a9a81a0c920"
        },
        "effectiveDateTime": "2024-01-01T00:00:00",
        "valueQuantity": {
          "value": 113.0,
          "unit": "beats/minute"
        }
      }
    },
    {
      "resource": {
        "resourceType": "Observation",
        "status": "final",
        "code": {
          "coding": [
            {
              "system": "http://loinc.org",
              "code": "85354-9",
              "display": "Blood pressure panel"
            }
          ]
        },
        "subject": {
          "reference": "Patient/47e57dc6-b80a-4b9a-98cc-1a9a81a0c920"
        },
        "effectiveDateTime": "2024-01-01T00:00:00",
        "component": [
          {
            "code": {
              "coding": [
                {
                  "system": "http://loinc.org",
                  "code": "8480-6",
                  "display": "Systolic"
                }
              ]
            },
            "valueQuantity": {
              "value": 176.0,
              "unit": "mmHg"
            }
          },
          {
            "code": {
              "coding": [
                {
                  "system": "http://loinc.org",
                  "code": "8462-4",
                  "display": "Diastolic"
                }
              ]
            },
            "valueQuantity": {
              "value": 98.0,
              "unit": "mmHg"
            }
          }
        ]
      }
    },
    {
      "resource": {
        "resourceType": "Patient",
        "id": "4ca6c5e9-d932-4cfd-b381-5062f9dacc92",
        "name": [
          {
            "text": "Tiffany Anderson"
          }
        ],
        "telecom": [
          {
            "system": "email",
            "value": "pittsrobert@example.com",
            "use": "home"
          }
        ],
        "gender": "male",
        "birthDate": "1965-04-30"
      }
    },
    {
      "resource": {
        "resourceType": "Observation",
        "status": "final",
        "code": {
          "coding": [
            {
              "system": "http://loinc.org",
              "code": "8867-4",
              "display": "Heart rate"
            }
          ]
        },
        "subject": {
          "reference": "Patient/4ca6c5e9-d932-4cfd-b381-5062f9dacc92"
        },
        "effectiveDateTime": "2024-01-01T00:00:00",
        "valueQuantity": {
          "value": 77.0,
          "unit": "beats/minute"
        }
      }
    },
    {
      "resource": {
        "resourceType": "Observation",
        "status": "final",
        "code": {
          "coding": [
            {
              "system": "http://loinc.org",
              "code": "85354-9",
              "display": "Blood pressure panel"
            }
          ]
        },
        "subject": {
          "reference": "Patient/4ca6c5e9-d932-4cfd-b381-5062f9dacc92"
        },
        "effectiveDateTime": "2024-01-01T00:00:00",
        "component": [
          {
            "code": {
              "coding": [
                {
                  "system": "http://loinc.org",
                  "code": "8480-6",
                  "display": "Systolic"
                }
              ]
            },
            "valueQuantity": {
              "value": 132.0,
              "unit": "mmHg"
            }
          },
          {
            "code": {
              "coding": [
                {
                  "system": "http://loinc.org",
                  "code": "8462-4",
                  "display": "Diastolic"
                }
              ]
            },
            "valueQuantity": {
              "value": 84.0,
              "unit": "mmHg"
            }
          }
        ]
      }
    },
    {
      "resource": {
        "resourceType": "Patient",
        "id": "0d3d62fd-1fd9-4247-928d-ac9e00782ceb",
        "name": [
          {
            "text": "Brian Moore"
          }
        ],
        "telecom": [
          {
            "system": "email",
            "value": "davisrhonda@example.com",
            "use": "home"
          }
        ],
        "gender": "female",
        "birthDate": "2009-08-19"
      }
    },
    {
      "resource": {
        "resourceType": "Observation",
        "status": "final",
        "code": {
          "coding": [
            {
              "system": "http://loinc.org",
              "code": "8867-4",
              "display": "Heart rate"
            }
          ]
        },
        "subject": {
          "reference": "Patient/0d3d62fd-1fd9-4247-928d-ac9e00782ceb"
        },
        "effectiveDateTime": "2024-01-01T00:00:00",
        "valueQuantity": {
          "value": 71.0,
          "unit": "beats/minute"
        }
      }
    },
    {
      "resource": {
        "resourceType": "Observation",
        "status": "final",
        "code": {
          "coding": [
            {
              "system": "http://loinc.org",
              "code": "85354-9",
              "display": "Blood pressure panel"
            }
          ]
        },
        "subject": {
          "reference": "Patient/0d3d62fd-1fd9-4247-928d-ac9e00782ceb"
        },
        "effectiveDateTime": "2024-01-01T00:00:00",
        "component": [
          {
            "code": {
              "coding": [
                {
                  "system": "http://loinc.org",
                  "code": "8480-6",
                  "display": "Systolic"
                }
              ]
            },
            "valueQuantity": {
              "value": 165.0,
              "unit": "mmHg"
            }
          },
          {
            "code": {
              "coding": [
                {
                  "system": "http://loinc.org",
                  "code": "8462-4",
                  "display": "Diastolic"
                }
              ]
            },
            "valueQuantity": {
              "value": 65.0,
              "unit": "mmHg"
            }
          }
        ]
      }
    },
    {
      "resource": {
        "resourceType": "Patient",
        "id": "693990a5-5ad8-4800-9f46-e7a35fb90109",
        "name": [
          {
            "text": "Tara Perez"
          }
        ],
        "telecom": [
          {
            "system": "email",
            "value": "whiteheather@example.net",
            "use": "home"
          }
        ],
        "gender": "other",
        "birthDate": "1948-09-13"
      }
    },
    {
      "resource": {
        "resourceType": "Observation",
        "status": "final",
        "code": {
          "coding": [
            {
              "system": "http://loinc.org",
              "code": "8867-4",
              "display": "Heart rate"
            }
          ]
        },
        "subject": {
          "reference": "Patient/693990a5-5ad8-4800-9f46-e7a35fb90109"
        },
        "effectiveDateTime": "2024-01-01T00:00:00",
        "valueQuantity": {
          "value": 87.0,
          "unit": "beats/minute"
        }
      }
    },
    {
      "resource": {
        "resourceType": "Observation",
        "status": "final",
        "code": {
          "coding": [
            {
              "system": "http://loinc.org",
              "code": "85354-9",
              "display": "Blood pressure panel"
            }
          ]
        },
        "subject": {
          "reference": "Patient/693990a5-5ad8-4800-9f46-e7a35fb90109"
        },
        "effectiveDateTime": "2024-01-01T00:00:00",
        "component": [
          {
            "code": {
              "coding": [
                {
                  "system": "http://loinc.org",
                  "code": "8480-6",
                  "display": "Systolic"
                }
              ]
            },
            "valueQuantity": {
              "value": 172.0,
              "unit": "mmHg"
            }
          },
          {
            "code": {
              "coding": [
                {
                  "system": "http://loinc.org",
                  "code": "8462-4",
                  "display": "Diastolic"
                }
              ]
            },
            "valueQuantity": {
              "value": 70.0,
              "unit": "mmHg"
            }
          }
        ]
      }
    },
    {
      "resource": {
        "resourceType": "Patient",
        "id": "8e42049b-2336-41a4-8fcc-fa7b0c6826fc",
        "name": [
          {
            "text": "Thomas Bryant"
          }
        ],
        "telecom": [
          {
            "system": "email",
            "value": "timothythompson@example.net",
            "use": "home"
          }
        ],
        "gender": "male",
        "birthDate": "1998-08-02"
      }
    },
    {
      "resource": {
        "resourceType": "Observation",
        "status": "final",
        "code": {
          "coding": [
            {
              "system": "http://loinc.org",
              "code": "8867-4",
              "display": "Heart rate"
            }
          ]
        },
        "subject": {
          "reference": "Patient/8e42049b-2336-41a4-8fcc-fa7b0c6826fc"
        },
        "effectiveDateTime": "2024-01-01T00:00:00",
        "valueQuantity": {
          "value": 105.0,
          "unit": "beats/minute"
        }
      }
    },
    {
      "resource": {
        "resourceType": "Observation",
        "status": "final",
        "code": {
          "coding": [
            {
              "system": "http://loinc.org",
              "code": "85354-9",
              "display": "Blood pressure panel"
            }
          ]
        },
        "subject": {
          "reference": "Patient/8e42049b-2336-41a4-8fcc-fa7b0c6826fc"
        },
        "effectiveDateTime": "2024-01-01T00:00:00",
        "component": [
          {
            "code": {
              "coding": [
                {
                  "system": "http://loinc.org",
                  "code": "8480-6",
                  "display": "Systolic"
                }
              ]
            },
            "valueQuantity": {
              "value": 101.0,
              "unit": "mmHg"
            }
          },
          {
            "code": {
              "coding": [
                {
                  "system": "http://loinc.org",
                  "code": "8462-4",
                  "display": "Diastolic"
                }
              ]
            },
            "valueQuantity": {
              "value": 95.0,
              "unit": "mmHg"
            }
          }
        ]
      }
    },
    {
      "resource": {
        "resourceType": "Patient",
        "id": "d803e6db-2550-4d1f-ac34-ecd0e6e78e8c",
        "name": [
          {
            "text": "Ashley Huber"
          }
        ],
        "telecom": [
          {
            "system": "email",
            "value": "bsmith@example.org",
            "use": "home"
          }
        ],
        "gender": "male",
        "birthDate": "1949-02-19"
      }
    },
    {
      "resource": {
        "resourceType": "Observation",
        "status": "final",
        "code": {
          "coding": [
            {
              "system": "http://loinc.org",
              "code": "8867-4",
              "display": "Heart rate"
            }
          ]
        },
        "subject": {
          "reference": "Patient/d803e6db-2550-4d1f-ac34-ecd0e6e78e8c"
        },
        "effectiveDateTime": "2024-01-01T00:00:00",
        "valueQuantity": {
          "value": 58.0,
          "unit": "beats/minute"
        }
      }
    },
    {
      "resource": {
        "resourceType": "Observation",
        "status": "final",
        "code": {
          "coding": [
            {
              "system": "http://loinc.org",
              "code": "85354-9",
              "display": "Blood pressure panel"
            }
          ]
        },
        "subject": {
          "reference": "Patient/d803e6db-2550-4d1f-ac34-ecd0e6e78e8c"
        },
        "effectiveDateTime": "2024-01-01T00:00:00",
        "component": [
          {
            "code": {
              "coding": [
                {
                  "system": "http://loinc.org",
                  "code": "8480-6",
                  "display": "Systolic"
                }
              ]
            },
            "valueQuantity": {
              "value": 104.0,
              "unit": "mmHg"
            }
          },
          {
            "code": {
              "coding": [
                {
                  "system": "http://loinc.org",
                  "code": "8462-4",
                  "display": "Diastolic"
                }
              ]
            },
            "valueQuantity": {
              "value": 98.0,
              "unit": "mmHg"
            }
          }
        ]
      }
    },
    {
      "resource": {
        "resourceType": "Patient",
        "id": "3b3fe562-a1a5-4001-a331-d3a94a0447aa",
        "name": [
          {
            "text": "Daniel Hayes"
          }
        ],
        "telecom": [
          {
            "system": "email",
            "value": "bmcdaniel@example.com",
            "use": "home"
          }
        ],
        "gender": "other",
        "birthDate": "1962-12-27"
      }
    },
    {
      "resource": {
        "resourceType": "Observation",
        "status": "final",
        "code": {
          "coding": [
            {
              "system": "http://loinc.org",
              "code": "8867-4",
              "display": "Heart rate"
            }
          ]
        },
        "subject": {
          "reference": "Patient/3b3fe562-a1a5-4001-a331-d3a94a0447aa"
        },
        "effectiveDateTime": "2024-01-01T00:00:00",
        "valueQuantity": {
          "value": 79.0,
          "unit": "beats/minute"
        }
      }
    },
    {
      "resource": {
        "resourceType": "Observation",
        "status": "final",
        "code": {
          "coding": [
            {
              "system": "http://loinc.org",
              "code": "85354-9",
              "display": "Blood pressure panel"
            }
          ]
        },
        "subject": {
          "reference": "Patient/3b3fe562-a1a5-4001-a331-d3a94a0447aa"
        },
        "effectiveDateTime": "2024-01-01T00:00:00",
        "component": [
          {
            "code": {
              "coding": [
                {
                  "system": "http://loinc.org",
                  "code": "8480-6",
                  "display": "Systolic"
                }
              ]
            },
            "valueQuantity": {
              "value": 98.0,
              "unit": "mmHg"
            }
          },
          {
            "code": {
              "coding": [
                {
                  "system": "http://loinc.org",
                  "code": "8462-4",
                  "display": "Diastolic"
                }
              ]
            },
            "valueQuantity": {
              "value": 77.0,
              "unit": "mmHg"
            }
          }
        ]
      }
    },
    {
      "resource": {
        "resourceType": "Patient",
        "id": "46e89e27-489a-495f-a9d3-198367864027",
        "name": [
          {
            "text": "Kyle Campbell"
          }
        ],
        "telecom": [
          {
            "system": "email",
            "value": "patricia85@example.com",
            "use": "home"
          }
        ],
        "gender": "female",
        "birthDate": "1985-02-11"
      }
    },
    {
      "resource": {
        "resourceType": "Observation",
        "status": "final",
        "code": {
          "coding": [
            {
              "system": "http://loinc.org",
              "code": "8867-4",
              "display": "Heart rate"
            }
          ]
        },
        "subject": {
          "reference": "Patient/46e89e27-489a-495f-a9d3-198367864027"
        },
        "effectiveDateTime": "2024-01-01T00:00:00",
        "valueQuantity": {
          "value": 53.0,
          "unit": "beats/minute"
        }
      }
    },
    {
      "resource": {
        "resourceType": "Observation",
        "status": "final",
        "code": {
          "coding": [
            {
              "system": "http://loinc.org",
              "code": "85354-9",
              "display": "Blood pressure panel"
            }
          ]
        },
        "subject": {
          "reference": "Patient/46e89e27-489a-495f-a9d3-198367864027"
        },
        "effectiveDateTime": "2024-01-01T00:00:00",
        "component": [
          {
            "code": {
              "coding": [
                {
                  "system": "http://loinc.org",
                  "code": "8480-6",
                  "display": "Systolic"
                }
              ]
            },
            "valueQuantity": {
              "value": 177.0,
              "unit": "mmHg"
            }
          },
          {
            "code": {
              "coding": [
                {
                  "system": "http://loinc.org",
                  "code": "8462-4",
                  "display": "Diastolic"
                }
              ]
            },
            "valueQuantity": {
              "value": 87.0,
              "unit": "mmHg"
            }
          }
        ]
      }
    },
    {
      "resource": {
        "resourceType": "Patient",
        "id": "1b0e9186-d141-43da-8844-902ad087a5c3",
        "name": [
          {
            "text": "Christopher Wood"
          }
        ],
        "telecom": [
          {
            "system": "email",
            "value": "ericmahoney@example.org",
            "use": "home"
          }
        ],
        "gender": "female",
        "birthDate": "1956-02-26"
      }
    },
    {
      "resource": {
        "resourceType": "Observation",
        "status": "final",
        "code": {
          "coding": [
            {
              "system": "http://loinc.org",
              "code": "8867-4",
              "display": "Heart rate"
            }
          ]
        },
        "subject": {
          "reference": "Patient/1b0e9186-d141-43da-8844-902ad087a5c3"
        },
        "effectiveDateTime": "2024-01-01T00:00:00",
        "valueQuantity": {
          "value": 102.0,
          "unit": "beats/minute"
        }
      }
    },
    {
      "resource": {
        "resourceType": "Observation",
        "status": "final",
        "code": {
          "coding": [
            {
              "system": "http://loinc.org",
              "code": "85354-9",
              "display": "Blood pressure panel"
            }
          ]
        },
        "subject": {
          "reference": "Patient/1b0e9186-d141-43da-8844-902ad087a5c3"
        },
        "effectiveDateTime": "2024-01-01T00:00:00",
        "component": [
          {
            "code": {
              "coding": [
                {
                  "system": "http://loinc.org",
                  "code": "8480-6",
                  "display": "Systolic"
                }
              ]
            },
            "valueQuantity": {
              "value": 109.0,
              "unit": "mmHg"
            }
          },
          {
            "code": {
              "coding": [
                {
                  "system": "http://loinc.org",
                  "code": "8462-4",
                  "display": "Diastolic"
                }
              ]
            },
            "valueQuantity": {
              "value": 71.0,
              "unit": "mmHg"
            }
          }
        ]
      }
    },
    {
      "resource": {
        "resourceType": "Patient",
        "id": "ebb212ae-05c4-4124-93a9-6b280a8986e2",
        "name": [
          {
            "text": "Julie Evans"
          }
        ],
        "telecom": [
          {
            "system": "email",
            "value": "williamssamantha@example.net",
            "use": "home"
          }
        ],
        "gender": "male",
        "birthDate": "1985-09-06"
      }
    },
    {
      "resource": {
        "resourceType": "Observation",
        "status": "final",
        "code": {
          "coding": [
            {
              "system": "http://loinc.org",
              "code": "8867-4",
              "display": "Heart rate"
            }
          ]
        },
        "subject": {
          "reference": "Patient/ebb212ae-05c4-4124-93a9-6b280a8986e2"
        },
        "effectiveDateTime": "2024-01-01T00:00:00",
        "valueQuantity": {
          "value": 113.0,
          "unit": "beats/minute"
        }
      }
    },
    {
      "resource": {
        "resourceType": "Observation",
        "status": "final",
        "code": {
          "coding": [
            {
              "system": "http://loinc.org",
              "code": "85354-9",
              "display": "Blood pressure panel"
            }
          ]
        },
        "subject": {
          "reference": "Patient/ebb212ae-05c4-4124-93a9-6b280a8986e2"
        },
        "effectiveDateTime": "2024-01-01T00:00:00",
        "component": [
          {
            "code": {
              "coding": [
                {
                  "system": "http://loinc.org",
                  "code": "8480-6",
                  "display": "Systolic"
                }
              ]
            },
            "valueQuantity": {
              "value": 153.0,
              "unit": "mmHg"
            }
          },
          {
            "code": {
              "coding": [
                {
                  "system": "http://loinc.org",
                  "code": "8462-4",
                  "display": "Diastolic"
                }
              ]
            },
            "valueQuantity": {
              "value": 98.0,
              "unit": "mmHg"
            }
          }
        ]
      }
    },
    {
      "resource": {
        "resourceType": "Patient",
        "id": "b0a6860f-a0af-4d87-bf85-f1e1a23affb4",
        "name": [
          {
            "text": "Terry Bryant"
          }
        ],
        "telecom": [
          {
            "system": "email",
            "value": "balvarez@example.org",
            "use": "home"
          }
        ],
        "gender": "female",
        "birthDate": "1953-07-07"
      }
    },
    {
      "resource": {
        "resourceType": "Observation",
        "status": "final",
        "code": {
          "coding": [
            {
              "system": "http://loinc.org",
              "code": "8867-4",
              "display": "Heart rate"
            }
          ]
        },
        "subject": {
          "reference": "Patient/b0a6860f-a0af-4d87-bf85-f1e1a23affb4"
        },
        "effectiveDateTime": "2024-01-01T00:00:00",
        "valueQuantity": {
          "value": 67.0,
          "unit": "beats/minute"
        }
      }
    },
    {
      "resource": {
        "resourceType": "Observation",
        "status": "final",
        "code": {
          "coding": [
            {
              "system": "http://loinc.org",
              "code": "85354-9",
              "display": "Blood pressure panel"
            }
          ]
        },
        "subject": {
          "reference": "Patient/b0a6860f-a0af-4d87-bf85-f1e1a23affb4"
        },
        "effectiveDateTime": "2024-01-01T00:00:00",
        "component": [
          {
            "code": {
              "coding": [
                {
                  "system": "http://loinc.org",
                  "code": "8480-6",
                  "display": "Systolic"
                }
              ]
            },
            "valueQuantity": {
              "value": 122.0,
              "unit": "mmHg"
            }
          },
          {
            "code": {
              "coding": [
                {
                  "system": "http://loinc.org",
                  "code": "8462-4",
                  "display": "Diastolic"
                }
              ]
            },
            "valueQuantity": {
              "value": 80.0,
              "unit": "mmHg"
            }
          }
        ]
      }
    },
    {
      "resource": {
        "resourceType": "Patient",
        "id": "bf3b137d-e0f0-4236-a355-3de74db6b30d",
        "name": [
          {
            "text": "Alexander Dixon"
          }
        ],
        "telecom": [
          {
            "system": "email",
            "value": "jmorrow@example.net",
            "use": "home"
          }
        ],
        "gender": "male",
        "birthDate": "1972-09-09"
      }
    },
    {
      "resource": {
        "resourceType": "Observation",
        "status": "final",
        "code": {
          "coding": [
            {
              "system": "http://loinc.org",
              "code": "8867-4",
              "display": "Heart rate"
            }
          ]
        },
        "subject": {
          "reference": "Patient/bf3b137d-e0f0-4236-a355-3de74db6b30d"
        },
        "effectiveDateTime": "2024-01-01T00:00:00",
        "valueQuantity": {
          "value": 73.0,
          "unit": "beats/minute"
        }
      }
    },
    {
      "resource": {
        "resourceType": "Observation",
        "status": "final",
        "code": {
          "coding": [
            {
              "system": "http://loinc.org",
              "code": "85354-9",
              "display": "Blood pressure panel"
            }
          ]
        },
        "subject": {
          "reference": "Patient/bf3b137d-e0f0-4236-a355-3de74db6b30d"
        },
        "effectiveDateTime": "2024-01-01T00:00:00",
        "component": [
          {
            "code": {
              "coding": [
                {
                  "system": "http://loinc.org",
                  "code": "8480-6",
                  "display": "Systolic"
                }
              ]
            },
            "valueQuantity": {
              "value": 121.0,
              "unit": "mmHg"
            }
          },
          {
            "code": {
              "coding": [
                {
                  "system": "http://loinc.org",
                  "code": "8462-4",
                  "display": "Diastolic"
                }
              ]
            },
            "valueQuantity": {
              "value": 64.0,
              "unit": "mmHg"
            }
          }
        ]
      }
    },
    {
      "resource": {
        "resourceType": "Patient",
        "id": "266e495f-284e-4cce-9b7d-5b5357f19c65",
        "name": [
          {
            "text": "Angel Jenkins"
          }
        ],
        "telecom": [
          {
            "system": "email",
            "value": "edward47@example.org",
            "use": "home"
          }
        ],
        "gender": "female",
        "birthDate": "1952-08-07"
      }
    },
    {
      "resource": {
        "resourceType": "Observation",
        "status": "final",
        "code": {
          "coding": [
            {
              "system": "http://loinc.org",
              "code": "8867-4",
              "display": "Heart rate"
            }
          ]
        },
        "subject": {
          "reference": "Patient/266e495f-284e-4cce-9b7d-5b5357f19c65"
        },
        "effectiveDateTime": "2024-01-01T00:00:00",
        "valueQuantity": {
          "value": 73.0,
          "unit": "beats/minute"
        }
      }
    },
    {
      "resource": {
        "resourceType": "Observation",
        "status": "final",
        "code": {
          "coding": [
            {
              "system": "http://loinc.org",
              "code": "85354-9",
              "display": "Blood pressure panel"
            }
          ]
        },
        "subject": {
          "reference": "Patient/266e495f-284e-4cce-9b7d-5b5357f19c65"
        },
        "effectiveDateTime": "2024-01-01T00:00:00",
        "component": [
          {
            "code": {
              "coding": [
                {
                  "system": "http://loinc.org",
                  "code": "8480-6",
                  "display": "Systolic"
                }
              ]
            },
            "valueQuantity": {
              "value": 161.0,
              "unit": "mmHg"
            }
          },
          {
            "code": {
              "coding": [
                {
                  "system": "http://loinc.org",
                  "code": "8462-4",
                  "display": "Diastolic"
                }
              ]
            },
            "valueQuantity": {
              "value": 66.0,
              "unit": "mmHg"
            }
          }
        ]
      }
    },
    {
      "resource": {
        "resourceType": "Patient",
        "id": "d8c6b6c0-6b13-41c4-8676-69aa93a8bed7",
        "name": [
          {
            "text": "Amanda Berry"
          }
        ],
        "telecom": [
          {
            "system": "email",
            "value": "gavinbrown@example.net",
            "use": "home"
          }
        ],
        "gender": "female",
        "birthDate": "1972-10-13"
      }
    },
    {
      "resource": {
        "resourceType": "Observation",
        "status": "final",
        "code": {
          "coding": [
            {
              "system": "http://loinc.org",
              "code": "8867-4",
              "display": "Heart rate"
            }
          ]
        },
        "subject": {
          "reference": "Patient/d8c6b6c0-6b13-41c4-8676-69aa93a8bed7"
        },
        "effectiveDateTime": "2024-01-01T00:00:00",
        "valueQuantity": {
          "value": 87.0,
          "unit": "beats/minute"
        }
      }
    },
    {
      "resource": {
        "resourceType": "Observation",
        "status": "final",
        "code": {
          "coding": [
            {
              "system": "http://loinc.org",
              "code": "85354-9",
              "display": "Blood pressure panel"
            }
          ]
        },
        "subject": {
          "reference": "Patient/d8c6b6c0-6b13-41c4-8676-69aa93a8bed7"
        },
        "effectiveDateTime": "2024-01-01T00:00:00",
        "component": [
          {
            "code": {
              "coding": [
                {
                  "system": "http://loinc.org",
                  "code": "8480-6",
                  "display": "Systolic"
                }
              ]
            },
            "valueQuantity": {
              "value": 150.0,
              "unit": "mmHg"
            }
          },
          {
            "code": {
              "coding": [
                {
                  "system": "http://loinc.org",
                  "code": "8462-4",
                  "display": "Diastolic"
                }
              ]
            },
            "valueQuantity": {
              "value": 91.0,
              "unit": "mmHg"
            }
          }
        ]
      }
    },
    {
      "resource": {
        "resourceType": "Patient",
        "id": "3f2f9e4e-513a-4a33-b992-9d977fef5829",
        "name": [
          {
            "text": "David Rivera"
          }
        ],
        "telecom": [
          {
            "system": "email",
            "value": "yhoward@example.com",
            "use": "home"
          }
        ],
        "gender": "male",
        "birthDate": "1967-10-31"
      }
    },
    {
      "resource": {
        "resourceType": "Observation",
        "status": "final",
        "code": {
          "coding": [
            {
              "system": "http://loinc.org",
              "code": "8867-4",
              "display": "Heart rate"
            }
          ]
        },
        "subject": {
          "reference": "Patient/3f2f9e4e-513a-4a33-b992-9d977fef5829"
        },
        "effectiveDateTime": "2024-01-01T00:00:00",
        "valueQuantity": {
          "value": 52.0,
          "unit": "beats/minute"
        }
      }
    },
    {
      "resource": {
        "resourceType": "Observation",
        "status": "final",
        "code": {
          "coding": [
            {
              "system": "http://loinc.org",
              "code": "85354-9",
              "display": "Blood pressure panel"
            }
          ]
        },
        "subject": {
          "reference": "Patient/3f2f9e4e-513a-4a33-b992-9d977fef5829"
        },
        "effectiveDateTime": "2024-01-01T00:00:00",
        "component": [
          {
            "code": {
              "coding": [
                {
                  "system": "http://loinc.org",
                  "code": "8480-6",
                  "display": "Systolic"
                }
              ]
            },
            "valueQuantity": {
              "value": 155.0,
              "unit": "mmHg"
            }
          },
          {
            "code": {
              "coding": [
                {
                  "system": "http://loinc.org",
                  "code": "8462-4",
                  "display": "Diastolic"
                }
              ]
            },
            "valueQuantity": {
              "value": 91.0,
              "unit": "mmHg"
            }
          }
        ]
      }
    },
    {
      "resource": {
        "resourceType": "Patient",
        "id": "b1db7786-f356-4133-8a87-0556230abdc9",
        "name": [
          {
            "text": "Justin Meyers"
          }
        ],
        "telecom": [
          {
            "system": "email",
            "value": "sherrycampos@example.net",
            "use": "home"
          }
        ],
        "gender": "female",
        "birthDate": "2024-04-16"
      }
    },
    {
      "resource": {
        "resourceType": "Observation",
        "status": "final",
        "code": {
          "coding": [
            {
              "system": "http://loinc.org",
              "code": "8867-4",
              "display": "Heart rate"
            }
          ]
        },
        "subject": {
          "reference": "Patient/b1db7786-f356-4133-8a87-0556230abdc9"
        },
        "effectiveDateTime": "2024-01-01T00:00:00",
        "valueQuantity": {
          "value": 106.0,
          "unit": "beats/minute"
        }
      }
    },
    {
      "resource": {
        "resourceType": "Observation",
        "status": "final",
        "code": {
          "coding": [
            {
              "system": "http://loinc.org",
              "code": "85354-9",
              "display": "Blood pressure panel"
            }
          ]
        },
        "subject": {
          "reference": "Patient/b1db7786-f356-4133-8a87-0556230abdc9"
        },
        "effectiveDateTime": "2024-01-01T00:00:00",
        "component": [
          {
            "code": {
              "coding": [
                {
                  "system": "http://loinc.org",
                  "code": "8480-6",
                  "display": "Systolic"
                }
              ]
            },
            "valueQuantity": {
              "value": 154.0,
              "unit": "mmHg"
            }
          },
          {
            "code": {
              "coding": [
                {
                  "system": "http://loinc.org",
                  "code": "8462-4",
                  "display": "Diastolic"
                }
              ]
            },
            "valueQuantity": {
              "value": 84.0,
              "unit": "mmHg"
            }
          }
        ]
      }
    },
    {
      "resource": {
        "resourceType": "Patient",
        "id": "f9a8fcd8-97ff-47b1-a669-6965a0151670",
        "name": [
          {
            "text": "Ian Kirk"
          }
        ],
        "telecom": [
          {
            "system": "email",
            "value": "nicoletrevino@example.com",
            "use": "home"
          }
        ],
        "gender": "other",
        "birthDate": "1956-03-09"
      }
    },
    {
      "resource": {
        "resourceType": "Observation",
        "status": "final",
        "code": {
          "coding": [
            {
              "system": "http://loinc.org",
              "code": "8867-4",
              "display": "Heart rate"
            }
          ]
        },
        "subject": {
          "reference": "Patient/f9a8fcd8-97ff-47b1-a669-6965a0151670"
        },
        "effectiveDateTime": "2024-01-01T00:00:00",
        "valueQuantity": {
          "value": 71.0,
          "unit": "beats/minute"
        }
      }
    },
    {
      "resource": {
        "resourceType": "Observation",
        "status": "final",
        "code": {
          "coding": [
            {
              "system": "http://loinc.org",
              "code": "85354-9",
              "display": "Blood pressure panel"
            }
          ]
        },
        "subject": {
          "reference": "Patient/f9a8fcd8-97ff-47b1-a669-6965a0151670"
        },
        "effectiveDateTime": "2024-01-01T00:00:00",
        "component": [
          {
            "code": {
              "coding": [
                {
                  "system": "http://loinc.org",
                  "code": "8480-6",
                  "display": "Systolic"
                }
              ]
            },
            "valueQuantity": {
              "value": 99.0,
              "unit": "mmHg"
            }
          },
          {
            "code": {
              "coding": [
                {
                  "system": "http://loinc.org",
                  "code": "8462-4",
                  "display": "Diastolic"
                }
              ]
            },
            "valueQuantity": {
              "value": 61.0,
              "unit": "mmHg"
            }
          }
        ]
      }
    },
    {
      "resource": {
        "resourceType": "Patient",
        "id": "90d20275-aa57-41d6-bb7a-830694527cbf",
        "name": [
          {
            "text": "David Woods"
          }
        ],
        "telecom": [
          {
            "system": "email",
            "value": "davidbray@example.com",
            "use": "home"
          }
        ],
        "gender": "male",
        "birthDate": "1955-11-01"
      }
    },
    {
      "resource": {
        "resourceType": "Observation",
        "status": "final",
        "code": {
          "coding": [
            {
              "system": "http://loinc.org",
              "code": "8867-4",
              "display": "Heart rate"
            }
          ]
        },
        "subject": {
          "reference": "Patient/90d20275-aa57-41d6-bb7a-830694527cbf"
        },
        "effectiveDateTime": "2024-01-01T00:00:00",
        "valueQuantity": {
          "value": 85.0,
          "unit": "beats/minute"
        }
      }
    },
    {
      "resource": {
        "resourceType": "Observation",
        "status": "final",
        "code": {
          "coding": [
            {
              "system": "http://loinc.org",
              "code": "85354-9",
              "display": "Blood pressure panel"
            }
          ]
        },
        "subject": {
          "reference": "Patient/90d20275-aa57-41d6-bb7a-830694527cbf"
        },
        "effectiveDateTime": "2024-01-01T00:00:00",
        "component": [
          {
            "code": {
              "coding": [
                {
                  "system": "http://loinc.org",
                  "code": "8480-6",
                  "display": "Systolic"
                }
              ]
            },
            "valueQuantity": {
              "value": 167.0,
              "unit": "mmHg"
            }
          },
          {
            "code": {
              "coding": [
                {
                  "system": "http://loinc.org",
                  "code": "8462-4",
                  "display": "Diastolic"
                }
              ]
            },
            "valueQuantity": {
              "value": 95.0,
              "unit": "mmHg"
            }
          }
        ]
      }
    },
    {
      "resource": {
        "resourceType": "Patient",
        "id": "b09e67d9-5c0e-4ea7-bf62-91d6c800d40c",
        "name": [
          {
            "text": "Mr. Thomas Robinson MD"
          }
        ],
        "telecom": [
          {
            "system": "email",
            "value": "ryansantiago@example.org",
            "use": "home"
          }
        ],
        "gender": "female",
        "birthDate": "1974-07-02"
      }
    },
    {
      "resource": {
        "resourceType": "Observation",
        "status": "final",
        "code": {
          "coding": [
            {
              "system": "http://loinc.org",
              "code": "8867-4",
              "display": "Heart rate"
            }
          ]
        },
        "subject": {
          "reference": "Patient/b09e67d9-5c0e-4ea7-bf62-91d6c800d40c"
        },
        "effectiveDateTime": "2024-01-01T00:00:00",
        "valueQuantity": {
          "value": 100.0,
          "unit": "beats/minute"
        }
      }
    },
    {
      "resource": {
        "resourceType": "Observation",
        "status": "final",
        "code": {
          "coding": [
            {
              "system": "http://loinc.org",
              "code": "85354-9",
              "display": "Blood pressure panel"
            }
          ]
        },
        "subject": {
          "reference": "Patient/b09e67d9-5c0e-4ea7-bf62-91d6c800d40c"
        },
        "effectiveDateTime": "2024-01-01T00:00:00",
        "component": [
          {
            "code": {
              "coding": [
                {
                  "system": "http://loinc.org",
                  "code": "8480-6",
                  "display": "Systolic"
                }
              ]
            },
            "valueQuantity": {
              "value": 173.0,
              "unit": "mmHg"
            }
          },
          {
            "code": {
              "coding": [
                {
                  "system": "http://loinc.org",
                  "code": "8462-4",
                  "display": "Diastolic"
                }
              ]
            },
            "valueQuantity": {
              "value": 73.0,
              "unit": "mmHg"
            }
          }
        ]
      }
    },
    {
      "resource": {
        "resourceType": "Patient",
        "id": "08c235b6-6fc4-412c-84dc-c4531a589cf6",
        "name": [
          {
            "text": "Justin Ray"
          }
        ],
        "telecom": [
          {
            "system": "email",
            "value": "stephanierichard@example.org",
            "use": "home"
          }
        ],
        "gender": "other",
        "birthDate": "1978-05-20"
      }
    },
    {
      "resource": {
        "resourceType": "Observation",
        "status": "final",
        "code": {
          "coding": [
            {
              "system": "http://loinc.org",
              "code": "8867-4",
              "display": "Heart rate"
            }
          ]
        },
        "subject": {
          "reference": "Patient/08c235b6-6fc4-412c-84dc-c4531a589cf6"
        },
        "effectiveDateTime": "2024-01-01T00:00:00",
        "valueQuantity": {
          "value": 81.0,
          "unit": "beats/minute"
        }
      }
    },
    {
      "resource": {
        "resourceType": "Observation",
        "status": "final",
        "code": {
          "coding": [
            {
              "system": "http://loinc.org",
              "code": "85354-9",
              "display": "Blood pressure panel"
            }
          ]
        },
        "subject": {
          "reference": "Patient/08c235b6-6fc4-412c-84dc-c4531a589cf6"
        },
        "effectiveDateTime": "2024-01-01T00:00:00",
        "component": [
          {
            "code": {
              "coding": [
                {
                  "system": "http://loinc.org",
                  "code": "8480-6",
                  "display": "Systolic"
                }
              ]
            },
            "valueQuantity": {
              "value": 134.0,
              "unit": "mmHg"
            }
          },
          {
            "code": {
              "coding": [
                {
                  "system": "http://loinc.org",
                  "code": "8462-4",
                  "display": "Diastolic"
                }
              ]
            },
            "valueQuantity": {
              "value": 65.0,
              "unit": "mmHg"
            }
          }
        ]
      }
    },
    {
      "resource": {
        "resourceType": "Patient",
        "id": "d89259bd-30da-4de2-9a7f-59bd20e08172",
        "name": [
          {
            "text": "Lori Stanley"
          }
        ],
        "telecom": [
          {
            "system": "email",
            "value": "mcampbell@example.com",
            "use": "home"
          }
        ],
        "gender": "other",
        "birthDate": "1985-06-12"
      }
    },
    {
      "resource": {
        "resourceType": "Observation",
        "status": "final",
        "code": {
          "coding": [
            {
              "system": "http://loinc.org",
              "code": "8867-4",
              "display": "Heart rate"
            }
          ]
        },
        "subject": {
          "reference": "Patient/d89259bd-30da-4de2-9a7f-59bd20e08172"
        },
        "effectiveDateTime": "2024-01-01T00:00:00",
        "valueQuantity": {
          "value": 100.0,
          "unit": "beats/minute"
        }
      }
    },
    {
      "resource": {
        "resourceType": "Observation",
        "status": "final",
        "code": {
          "coding": [
            {
              "system": "http://loinc.org",
              "code": "85354-9",
              "display": "Blood pressure panel"
            }
          ]
        },
        "subject": {
          "reference": "Patient/d89259bd-30da-4de2-9a7f-59bd20e08172"
        },
        "effectiveDateTime": "2024-01-01T00:00:00",
        "component": [
          {
            "code": {
              "coding": [
                {
                  "system": "http://loinc.org",
                  "code": "8480-6",
                  "display": "Systolic"
                }
              ]
            },
            "valueQuantity": {
              "value": 107.0,
              "unit": "mmHg"
            }
          },
          {
            "code": {
              "coding": [
                {
                  "system": "http://loinc.org",
                  "code": "8462-4",
                  "display": "Diastolic"
                }
              ]
            },
            "valueQuantity": {
              "value": 85.0,
              "unit": "mmHg"
            }
          }
        ]
      }
    },
    {
      "resource": {
        "resourceType": "Patient",
        "id": "bc3a6d0e-eeb6-441d-a6fd-0fac797892d4",
        "name": [
          {
            "text": "Nicholas Terry"
          }
        ],
        "telecom": [
          {
            "system": "email",
            "value": "pdougherty@example.org",
            "use": "home"
          }
        ],
        "gender": "other",
        "birthDate": "1985-11-18"
      }
    },
    {
      "resource": {
        "resourceType": "Observation",
        "status": "final",
        "code": {
          "coding": [
            {
              "system": "http://loinc.org",
              "code": "8867-4",
              "display": "Heart rate"
            }
          ]
        },
        "subject": {
          "reference": "Patient/bc3a6d0e-eeb6-441d-a6fd-0fac797892d4"
        },
        "effectiveDateTime": "2024-01-01T00:00:00",
        "valueQuantity": {
          "value": 79.0,
          "unit": "beats/minute"
        }
      }
    },
    {
      "resource": {
        "resourceType": "Observation",
        "status": "final",
        "code": {
          "coding": [
            {
              "system": "http://loinc.org",
              "code": "85354-9",
              "display": "Blood pressure panel"
            }
          ]
        },
        "subject": {
          "reference": "Patient/bc3a6d0e-eeb6-441d-a6fd-0fac797892d4"
        },
        "effectiveDateTime": "2024-01-01T00:00:00",
        "component": [
          {
            "code": {
              "coding": [
                {
                  "system": "http://loinc.org",
                  "code": "8480-6",
                  "display": "Systolic"
                }
              ]
            },
            "valueQuantity": {
              "value": 161.0,
              "unit": "mmHg"
            }
          },
          {
            "code": {
              "coding": [
                {
                  "system": "http://loinc.org",
                  "code": "8462-4",
                  "display": "Diastolic"
                }
              ]
            },
            "valueQuantity": {
              "value": 79.0,
              "unit": "mmHg"
            }
          }
        ]
      }
    },
    {
      "resource": {
        "resourceType": "Patient",
        "id": "f11aef0a-6500-45a4-83e3-461b9a568270",
        "name": [
          {
            "text": "Stacy Webb"
          }
        ],
        "telecom": [
          {
            "system": "email",
            "value": "basskristen@example.com",
            "use": "home"
          }
        ],
        "gender": "female",
        "birthDate": "1991-11-05"
      }
    },
    {
      "resource": {
        "resourceType": "Observation",
        "status": "final",
        "code": {
          "coding": [
            {
              "system": "http://loinc.org",
              "code": "8867-4",
              "display": "Heart rate"
            }
          ]
        },
        "subject": {
          "reference": "Patient/f11aef0a-6500-45a4-83e3-461b9a568270"
        },
        "effectiveDateTime": "2024-01-01T00:00:00",
        "valueQuantity": {
          "value": 119.0,
          "unit": "beats/minute"
        }
      }
    },
    {
      "resource": {
        "resourceType": "Observation",
        "status": "final",
        "code": {
          "coding": [
            {
              "system": "http://loinc.org",
              "code": "85354-9",
              "display": "Blood pressure panel"
            }
          ]
        },
        "subject": {
          "reference": "Patient/f11aef0a-6500-45a4-83e3-461b9a568270"
        },
        "effectiveDateTime": "2024-01-01T00:00:00",
        "component": [
          {
            "code": {
              "coding": [
                {
                  "system": "http://loinc.org",
                  "code": "8480-6",
                  "display": "Systolic"
                }
              ]
            },
            "valueQuantity": {
              "value": 119.0,
              "unit": "mmHg"
            }
          },
          {
            "code": {
              "coding": [
                {
                  "system": "http://loinc.org",
                  "code": "8462-4",
                  "display": "Diastolic"
                }
              ]
            },
            "valueQuantity": {
              "value": 65.0,
              "unit": "mmHg"
            }
          }
        ]
      }
    },
    {
      "resource": {
        "resourceType": "Patient",
        "id": "40543c7e-089d-4e9b-96d5-6f469ba6251b",
        "name": [
          {
            "text": "Jenna Ingram"
          }
        ],
        "telecom": [
          {
            "system": "email",
            "value": "corymontes@example.org",
            "use": "home"
          }
        ],
        "gender": "female",
        "birthDate": "2012-12-20"
      }
    },
    {
      "resource": {
        "resourceType": "Observation",
        "status": "final",
        "code": {
          "coding": [
            {
              "system": "http://loinc.org",
              "code": "8867-4",
              "display": "Heart rate"
            }
          ]
        },
        "subject": {
          "reference": "Patient/40543c7e-089d-4e9b-96d5-6f469ba6251b"
        },
        "effectiveDateTime": "2024-01-01T00:00:00",
        "valueQuantity": {
          "value": 69.0,
          "unit": "beats/minute"
        }
      }
    },
    {
      "resource": {
        "resourceType": "Observation",
        "status": "final",
        "code": {
          "coding": [
            {
              "system": "http://loinc.org",
              "code": "85354-9",
              "display": "Blood pressure panel"
            }
          ]
        },
        "subject": {
          "reference": "Patient/40543c7e-089d-4e9b-96d5-6f469ba6251b"
        },
        "effectiveDateTime": "2024-01-01T00:00:00",
        "component": [
          {
            "code": {
              "coding": [
                {
                  "system": "http://loinc.org",
                  "code": "8480-6",
                  "display": "Systolic"
                }
              ]
            },
            "valueQuantity": {
              "value": 135.0,
              "unit": "mmHg"
            }
          },
          {
            "code": {
              "coding": [
                {
                  "system": "http://loinc.org",
                  "code": "8462-4",
                  "display": "Diastolic"
                }
              ]
            },
            "valueQuantity": {
              "value": 97.0,
              "unit": "mmHg"
            }
          }
        ]
      }
    },
    {
      "resource": {
        "resourceType": "Patient",
        "id": "7ca4fbd9-8415-4aed-9ef7-9c28a23da31a",
        "name": [
          {
            "text": "Hannah Herrera"
          }
        ],
        "telecom": [
          {
            "system": "email",
            "value": "efreeman@example.net",
            "use": "home"
          }
        ],
        "gender": "male",
        "birthDate": "1987-03-01"
      }
    },
    {
      "resource": {
        "resourceType": "Observation",
        "status": "final",
        "code": {
          "coding": [
            {
              "system": "http://loinc.org",
              "code": "8867-4",
              "display": "Heart rate"
            }
          ]
        },
        "subject": {
          "reference": "Patient/7ca4fbd9-8415-4aed-9ef7-9c28a23da31a"
        },
        "effectiveDateTime": "2024-01-01T00:00:00",
        "valueQuantity": {
          "value": 59.0,
          "unit": "beats/minute"
        }
      }
    },
    {
      "resource": {
        "resourceType": "Observation",
        "status": "final",
        "code": {
          "coding": [
            {
              "system": "http://loinc.org",
              "code": "85354-9",
              "display": "Blood pressure panel"
            }
          ]
        },
        "subject": {
          "reference": "Patient/7ca4fbd9-8415-4aed-9ef7-9c28a23da31a"
        },
        "effectiveDateTime": "2024-01-01T00:00:00",
        "component": [
          {
            "code": {
              "coding": [
                {
                  "system": "http://loinc.org",
                  "code": "8480-6",
                  "display": "Systolic"
                }
              ]
            },
            "valueQuantity": {
              "value": 132.0,
              "unit": "mmHg"
            }
          },
          {
            "code": {
              "coding": [
                {
                  "system": "http://loinc.org",
                  "code": "8462-4",
                  "display": "Diastolic"
                }
              ]
            },
            "valueQuantity": {
              "value": 94.0,
              "unit": "mmHg"
            }
          }
        ]
      }
    },
    {
      "resource": {
        "resourceType": "Patient",
        "id": "0765adb4-23be-4a2f-b5eb-410dc2d08a03",
        "name": [
          {
            "text": "Diane Thomas"
          }
        ],
        "telecom": [
          {
            "system": "email",
            "value": "bsmith@example.net",
            "use": "home"
          }
        ],
        "gender": "other",
        "birthDate": "1990-02-05"
      }
    },
    {
      "resource": {
        "resourceType": "Observation",
        "status": "final",
        "code": {
          "coding": [
            {
              "system": "http://loinc.org",
              "code": "8867-4",
              "display": "Heart rate"
            }
          ]
        },
        "subject": {
          "reference": "Patient/0765adb4-23be-4a2f-b5eb-410dc2d08a03"
        },
        "effectiveDateTime": "2024-01-01T00:00:00",
        "valueQuantity": {
          "value": 102.0,
          "unit": "beats/minute"
        }
      }
    },
    {
      "resource": {
        "resourceType": "Observation",
        "status": "final",
        "code": {
          "coding": [
            {
              "system": "http://loinc.org",
              "code": "85354-9",
              "display": "Blood pressure panel"
            }
          ]
        },
        "subject": {
          "reference": "Patient/0765adb4-23be-4a2f-b5eb-410dc2d08a03"
        },
        "effectiveDateTime": "2024-01-01T00:00:00",
        "component": [
          {
            "code": {
              "coding": [
                {
                  "system": "http://loinc.org",
                  "code": "8480-6",
                  "display": "Systolic"
                }
              ]
            },
            "valueQuantity": {
              "value": 169.0,
              "unit": "mmHg"
            }
          },
          {
            "code": {
              "coding": [
                {
                  "system": "http://loinc.org",
                  "code": "8462-4",
                  "display": "Diastolic"
                }
              ]
            },
            "valueQuantity": {
              "value": 69.0,
              "unit": "mmHg"
            }
          }
        ]
      }
    },
    {
      "resource": {
        "resourceType": "Patient",
        "id": "d789231f-c0f8-4bca-9a43-d182b28d3c33",
        "name": [
          {
            "text": "Lisa Hall"
          }
        ],
        "telecom": [
          {
            "system": "email",
            "value": "dedwards@example.com",
            "use": "home"
          }
        ],
        "gender": "male",
        "birthDate": "2003-03-16"
      }
    },
    {
      "resource": {
        "resourceType": "Observation",
        "status": "final",
        "code": {
          "coding": [
            {
              "system": "http://loinc.org",
              "code": "8867-4",
              "display": "Heart rate"
            }
          ]
        },
        "subject": {
          "reference": "Patient/d789231f-c0f8-4bca-9a43-d182b28d3c33"
        },
        "effectiveDateTime": "2024-01-01T00:00:00",
        "valueQuantity": {
          "value": 75.0,
          "unit": "beats/minute"
        }
      }
    },
    {
      "resource": {
        "resourceType": "Observation",
        "status": "final",
        "code": {
          "coding": [
            {
              "system": "http://loinc.org",
              "code": "85354-9",
              "display": "Blood pressure panel"
            }
          ]
        },
        "subject": {
          "reference": "Patient/d789231f-c0f8-4bca-9a43-d182b28d3c33"
        },
        "effectiveDateTime": "2024-01-01T00:00:00",
        "component": [
          {
            "code": {
              "coding": [
                {
                  "system": "http://loinc.org",
                  "code": "8480-6",
                  "display": "Systolic"
                }
              ]
            },
            "valueQuantity": {
              "value": 113.0,
              "unit": "mmHg"
            }
          },
          {
            "code": {
              "coding": [
                {
                  "system": "http://loinc.org",
                  "code": "8462-4",
                  "display": "Diastolic"
                }
              ]
            },
            "valueQuantity": {
              "value": 68.0,
              "unit": "mmHg"
            }
          }
        ]
      }
    },
    {
      "resource": {
        "resourceType": "Patient",
        "id": "490a7c2d-d35b-432f-9d87-bbbf2939d4eb",
        "name": [
          {
            "text": "Margaret Pace"
          }
        ],
        "telecom": [
          {
            "system": "email",
            "value": "jamessalazar@example.net",
            "use": "home"
          }
        ],
        "gender": "female",
        "birthDate": "1963-12-08"
      }
    },
    {
      "resource": {
        "resourceType": "Observation",
        "status": "final",
        "code": {
          "coding": [
            {
              "system": "http://loinc.org",
              "code": "8867-4",
              "display": "Heart rate"
            }
          ]
        },
        "subject": {
          "reference": "Patient/490a7c2d-d35b-432f-9d87-bbbf2939d4eb"
        },
        "effectiveDateTime": "2024-01-01T00:00:00",
        "valueQuantity": {
          "value": 81.0,
          "unit": "beats/minute"
        }
      }
    },
    {
      "resource": {
        "resourceType": "Observation",
        "status": "final",
        "code": {
          "coding": [
            {
              "system": "http://loinc.org",
              "code": "85354-9",
              "display": "Blood pressure panel"
            }
          ]
        },
        "subject": {
          "reference": "Patient/490a7c2d-d35b-432f-9d87-bbbf2939d4eb"
        },
        "effectiveDateTime": "2024-01-01T00:00:00",
        "component": [
          {
            "code": {
              "coding": [
                {
                  "system": "http://loinc.org",
                  "code": "8480-6",
                  "display": "Systolic"
                }
              ]
            },
            "valueQuantity": {
              "value": 97.0,
              "unit": "mmHg"
            }
          },
          {
            "code": {
              "coding": [
                {
                  "system": "http://loinc.org",
                  "code": "8462-4",
                  "display": "Diastolic"
                }
              ]
            },
            "valueQuantity": {
              "value": 84.0,
              "unit": "mmHg"
            }
          }
        ]
      }
    },
    {
      "resource": {
        "resourceType": "Patient",
        "id": "9a7a2996-eade-47ff-bb39-df92213b18b4",
        "name": [
          {
            "text": "Beverly Hubbard MD"
          }
        ],
        "telecom": [
          {
            "system": "email",
            "value": "robertmitchell@example.org",
            "use": "home"
          }
        ],
        "gender": "male",
        "birthDate": "2020-11-16"
      }
    },
    {
      "resource": {
        "resourceType": "Observation",
        "status": "final",
        "code": {
          "coding": [
            {
              "system": "http://loinc.org",
              "code": "8867-4",
              "display": "Heart rate"
            }
          ]
        },
        "subject": {
          "reference": "Patient/9a7a2996-eade-47ff-bb39-df92213b18b4"
        },
        "effectiveDateTime": "2024-01-01T00:00:00",
        "valueQuantity": {
          "value": 70.0,
          "unit": "beats/minute"
        }
      }
    },
    {
      "resource": {
        "resourceType": "Observation",
        "status": "final",
        "code": {
          "coding": [
            {
              "system": "http://loinc.org",
              "code": "85354-9",
              "display": "Blood pressure panel"
            }
          ]
        },
        "subject": {
          "reference": "Patient/9a7a2996-eade-47ff-bb39-df92213b18b4"
        },
        "effectiveDateTime": "2024-01-01T00:00:00",
        "component": [
          {
            "code": {
              "coding": [
                {
                  "system": "http://loinc.org",
                  "code": "8480-6",
                  "display": "Systolic"
                }
              ]
            },
            "valueQuantity": {
              "value": 144.0,
              "unit": "mmHg"
            }
          },
          {
            "code": {
              "coding": [
                {
                  "system": "http://loinc.org",
                  "code": "8462-4",
                  "display": "Diastolic"
                }
              ]
            },
            "valueQuantity": {
              "value": 68.0,
              "unit": "mmHg"
            }
          }
        ]
      }
    },
    {
      "resource": {
        "resourceType": "Patient",
        "id": "332c93a8-76b6-43bd-89fa-a8eeb8d9ae00",
        "name": [
          {
            "text": "Eric Carson"
          }
        ],
        "telecom": [
          {
            "system": "email",
            "value": "vmcneil@example.net",
            "use": "home"
          }
        ],
        "gender": "other",
        "birthDate": "1983-05-22"
      }
    },
    {
      "resource": {
        "resourceType": "Observation",
        "status": "final",
        "code": {
          "coding": [
            {
              "system": "http://loinc.org",
              "code": "8867-4",
              "display": "Heart rate"
            }
          ]
        },
        "subject": {
          "reference": "Patient/332c93a8-76b6-43bd-89fa-a8eeb8d9ae00"
        },
        "effectiveDateTime": "2024-01-01T00:00:00",
        "valueQuantity": {
          "value": 92.0,
          "unit": "beats/minute"
        }
      }
    },
    {
      "resource": {
        "resourceType": "Observation",
        "status": "final",
        "code": {
          "coding": [
            {
              "system": "http://loinc.org",
              "code": "85354-9",
              "display": "Blood pressure panel"
            }
          ]
        },
        "subject": {
          "reference": "Patient/332c93a8-76b6-43bd-89fa-a8eeb8d9ae00"
        },
        "effectiveDateTime": "2024-01-01T00:00:00",
        "component": [
          {
            "code": {
              "coding": [
                {
                  "system": "http://loinc.org",
                  "code": "8480-6",
                  "display": "Systolic"
                }
              ]
            },
            "valueQuantity": {
              "value": 168.0,
              "unit": "mmHg"
            }
          },
          {
            "code": {
              "coding": [
                {
                  "system": "http://loinc.org",
                  "code": "8462-4",
                  "display": "Diastolic"
                }
              ]
            },
            "valueQuantity": {
              "value": 95.0,
              "unit": "mmHg"
            }
          }
        ]
      }
    },
    {
      "resource": {
        "resourceType": "Patient",
        "id": "846e08b4-8d35-4802-88e5-09561f85f115",
        "name": [
          {
            "text": "Yvette Johnson"
          }
        ],
        "telecom": [
          {
            "system": "email",
            "value": "pamela39@example.org",
            "use": "home"
          }
        ],
        "gender": "male",
        "birthDate": "1963-09-28"
      }
    },
    {
      "resource": {
        "resourceType": "Observation",
        "status": "final",
        "code": {
          "coding": [
            {
              "system": "http://loinc.org",
              "code": "8867-4",
              "display": "Heart rate"
            }
          ]
        },
        "subject": {
          "reference": "Patient/846e08b4-8d35-4802-88e5-09561f85f115"
        },
        "effectiveDateTime": "2024-01-01T00:00:00",
        "valueQuantity": {
          "value": 95.0,
          "unit": "beats/minute"
        }
      }
    },
    {
      "resource": {
        "resourceType": "Observation",
        "status": "final",
        "code": {
          "coding": [
            {
              "system": "http://loinc.org",
              "code": "85354-9",
              "display": "Blood pressure panel"
            }
          ]
        },
        "subject": {
          "reference": "Patient/846e08b4-8d35-4802-88e5-09561f85f115"
        },
        "effectiveDateTime": "2024-01-01T00:00:00",
        "component": [
          {
            "code": {
              "coding": [
                {
                  "system": "http://loinc.org",
                  "code": "8480-6",
                  "display": "Systolic"
                }
              ]
            },
            "valueQuantity": {
              "value": 91.0,
              "unit": "mmHg"
            }
          },
          {
            "code": {
              "coding": [
                {
                  "system": "http://loinc.org",
                  "code": "8462-4",
                  "display": "Diastolic"
                }
              ]
            },
            "valueQuantity": {
              "value": 72.0,
              "unit": "mmHg"
            }
          }
        ]
      }
    },
    {
      "resource": {
        "resourceType": "Patient",
        "id": "771d6453-7e68-4d7f-b99a-e0b974891ff4",
        "name": [
          {
            "text": "Bobby Jones"
          }
        ],
        "telecom": [
          {
            "system": "email",
            "value": "erin62@example.net",
            "use": "home"
          }
        ],
        "gender": "other",
        "birthDate": "1948-05-19"
      }
    },
    {
      "resource": {
        "resourceType": "Observation",
        "status": "final",
        "code": {
          "coding": [
            {
              "system": "http://loinc.org",
              "code": "8867-4",
              "display": "Heart rate"
            }
          ]
        },
        "subject": {
          "reference": "Patient/771d6453-7e68-4d7f-b99a-e0b974891ff4"
        },
        "effectiveDateTime": "2024-01-01T00:00:00",
        "valueQuantity": {
          "value": 55.0,
          "unit": "beats/minute"
        }
      }
    },
    {
      "resource": {
        "resourceType": "Observation",
        "status": "final",
        "code": {
          "coding": [
            {
              "system": "http://loinc.org",
              "code": "85354-9",
              "display": "Blood pressure panel"
            }
          ]
        },
        "subject": {
          "reference": "Patient/771d6453-7e68-4d7f-b99a-e0b974891ff4"
        },
        "effectiveDateTime": "2024-01-01T00:00:00",
        "component": [
          {
            "code": {
              "coding": [
                {
                  "system": "http://loinc.org",
                  "code": "8480-6",
                  "display": "Systolic"
                }
              ]
            },
            "valueQuantity": {
              "value": 172.0,
              "unit": "mmHg"
            }
          },
          {
            "code": {
              "coding": [
                {
                  "system": "http://loinc.org",
                  "code": "8462-4",
                  "display": "Diastolic"
                }
              ]
            },
            "valueQuantity": {
              "value": 82.0,
              "unit": "mmHg"
            }
          }
        ]
      }
    },
    {
      "resource": {
        "resourceType": "Patient",
        "id": "b89c8a46-d4a8-43af-bd13-5ce8108c1f66",
        "name": [
          {
            "text": "Laura Mills"
          }
        ],
        "telecom": [
          {
            "system": "email",
            "value": "daniel41@example.com",
            "use": "home"
          }
        ],
        "gender": "male",
        "birthDate": "1996-04-08"
      }
    },
    {
      "resource": {
        "resourceType": "Observation",
        "status": "final",
        "code": {
          "coding": [
            {
              "system": "http://loinc.org",
              "code": "8867-4",
              "display": "Heart rate"
            }
          ]
        },
        "subject": {
          "reference": "Patient/b89c8a46-d4a8-43af-bd13-5ce8108c1f66"
        },
        "effectiveDateTime": "2024-01-01T00:00:00",
        "valueQuantity": {
          "value": 74.0,
          "unit": "beats/minute"
        }
      }
    },
    {
      "resource": {
        "resourceType": "Observation",
        "status": "final",
        "code": {
          "coding": [
            {
              "system": "http://loinc.org",
              "code": "85354-9",
              "display": "Blood pressure panel"
            }
          ]
        },
        "subject": {
          "reference": "Patient/b89c8a46-d4a8-43af-bd13-5ce8108c1f66"
        },
        "effectiveDateTime": "2024-01-01T00:00:00",
        "component": [
          {
            "code": {
              "coding": [
                {
                  "system": "http://loinc.org",
                  "code": "8480-6",
                  "display": "Systolic"
                }
              ]
            },
            "valueQuantity": {
              "value": 142.0,
              "unit": "mmHg"
            }
          },
          {
            "code": {
              "coding": [
                {
                  "system": "http://loinc.org",
                  "code": "8462-4",
                  "display": "Diastolic"
                }
              ]
            },
            "valueQuantity": {
              "value": 94.0,
              "unit": "mmHg"
            }
          }
        ]
      }
    },
    {
      "resource": {
        "resourceType": "Patient",
        "id": "9ebe3b4e-9e2d-4cc7-8e25-669ee27d3779",
        "name": [
          {
            "text": "April Malone"
          }
        ],
        "telecom": [
          {
            "system": "email",
            "value": "cynthiahanson@example.org",
            "use": "home"
          }
        ],
        "gender": "other",
        "birthDate": "1946-05-13"
      }
    },
    {
      "resource": {
        "resourceType": "Observation",
        "status": "final",
        "code": {
          "coding": [
            {
              "system": "http://loinc.org",
              "code": "8867-4",
              "display": "Heart rate"
            }
          ]
        },
        "subject": {
          "reference": "Patient/9ebe3b4e-9e2d-4cc7-8e25-669ee27d3779"
        },
        "effectiveDateTime": "2024-01-01T00:00:00",
        "valueQuantity": {
          "value": 55.0,
          "unit": "beats/minute"
        }
      }
    },
    {
      "resource": {
        "resourceType": "Observation",
        "status": "final",
        "code": {
          "coding": [
            {
              "system": "http://loinc.org",
              "code": "85354-9",
              "display": "Blood pressure panel"
            }
          ]
        },
        "subject": {
          "reference": "Patient/9ebe3b4e-9e2d-4cc7-8e25-669ee27d3779"
        },
        "effectiveDateTime": "2024-01-01T00:00:00",
        "component": [
          {
            "code": {
              "coding": [
                {
                  "system": "http://loinc.org",
                  "code": "8480-6",
                  "display": "Systolic"
                }
              ]
            },
            "valueQuantity": {
              "value": 140.0,
              "unit": "mmHg"
            }
          },
          {
            "code": {
              "coding": [
                {
                  "system": "http://loinc.org",
                  "code": "8462-4",
                  "display": "Diastolic"
                }
              ]
            },
            "valueQuantity": {
              "value": 81.0,
              "unit": "mmHg"
            }
          }
        ]
      }
    },
    {
      "resource": {
        "resourceType": "Patient",
        "id": "c544e4f2-8965-4aba-9397-a8528dce9813",
        "name": [
          {
            "text": "Lisa Richardson"
          }
        ],
        "telecom": [
          {
            "system": "email",
            "value": "owensalex@example.com",
            "use": "home"
          }
        ],
        "gender": "other",
        "birthDate": "2024-10-01"
      }
    },
    {
      "resource": {
        "resourceType": "Observation",
        "status": "final",
        "code": {
          "coding": [
            {
              "system": "http://loinc.org",
              "code": "8867-4",
              "display": "Heart rate"
            }
          ]
        },
        "subject": {
          "reference": "Patient/c544e4f2-8965-4aba-9397-a8528dce9813"
        },
        "effectiveDateTime": "2024-01-01T00:00:00",
        "valueQuantity": {
          "value": 54.0,
          "unit": "beats/minute"
        }
      }
    },
    {
      "resource": {
        "resourceType": "Observation",
        "status": "final",
        "code": {
          "coding": [
            {
              "system": "http://loinc.org",
              "code": "85354-9",
              "display": "Blood pressure panel"
            }
          ]
        },
        "subject": {
          "reference": "Patient/c544e4f2-8965-4aba-9397-a8528dce9813"
        },
        "effectiveDateTime": "2024-01-01T00:00:00",
        "component": [
          {
            "code": {
              "coding": [
                {
                  "system": "http://loinc.org",
                  "code": "8480-6",
                  "display": "Systolic"
                }
              ]
            },
            "valueQuantity": {
              "value": 123.0,
              "unit": "mmHg"
            }
          },
          {
            "code": {
              "coding": [
                {
                  "system": "http://loinc.org",
                  "code": "8462-4",
                  "display": "Diastolic"
                }
              ]
            },
            "valueQuantity": {
              "value": 100.0,
              "unit": "mmHg"
            }
          }
        ]
      }
    },
    {
      "resource": {
        "resourceType": "Patient",
        "id": "3ae4b61e-50c4-4a60-8afa-c1fc0aea13a7",
        "name": [
          {
            "text": "Frank Morris"
          }
        ],
        "telecom": [
          {
            "system": "email",
            "value": "amanda16@example.com",
            "use": "home"
          }
        ],
        "gender": "female",
        "birthDate": "1939-05-13"
      }
    },
    {
      "resource": {
        "resourceType": "Observation",
        "status": "final",
        "code": {
          "coding": [
            {
              "system": "http://loinc.org",
              "code": "8867-4",
              "display": "Heart rate"
            }
          ]
        },
        "subject": {
          "reference": "Patient/3ae4b61e-50c4-4a60-8afa-c1fc0aea13a7"
        },
        "effectiveDateTime": "2024-01-01T00:00:00",
        "valueQuantity": {
          "value": 88.0,
          "unit": "beats/minute"
        }
      }
    },
    {
      "resource": {
        "resourceType": "Observation",
        "status": "final",
        "code": {
          "coding": [
            {
              "system": "http://loinc.org",
              "code": "85354-9",
              "display": "Blood pressure panel"
            }
          ]
        },
        "subject": {
          "reference": "Patient/3ae4b61e-50c4-4a60-8afa-c1fc0aea13a7"
        },
        "effectiveDateTime": "2024-01-01T00:00:00",
        "component": [
          {
            "code": {
              "coding": [
                {
                  "system": "http://loinc.org",
                  "code": "8480-6",
                  "display": "Systolic"
                }
              ]
            },
            "valueQuantity": {
              "value": 93.0,
              "unit": "mmHg"
            }
          },
          {
            "code": {
              "coding": [
                {
                  "system": "http://loinc.org",
                  "code": "8462-4",
                  "display": "Diastolic"
                }
              ]
            },
            "valueQuantity": {
              "value": 100.0,
              "unit": "mmHg"
            }
          }
        ]
      }
    },
    {
      "resource": {
        "resourceType": "Patient",
        "id": "77c0ccc3-7734-4f4a-8f3b-bc516b9d102d",
        "name": [
          {
            "text": "Kaylee Johnson"
          }
        ],
        "telecom": [
          {
            "system": "email",
            "value": "cynthia60@example.net",
            "use": "home"
          }
        ],
        "gender": "female",
        "birthDate": "1990-10-31"
      }
    },
    {
      "resource": {
        "resourceType": "Observation",
        "status": "final",
        "code": {
          "coding": [
            {
              "system": "http://loinc.org",
              "code": "8867-4",
              "display": "Heart rate"
            }
          ]
        },
        "subject": {
          "reference": "Patient/77c0ccc3-7734-4f4a-8f3b-bc516b9d102d"
        },
        "effectiveDateTime": "2024-01-01T00:00:00",
        "valueQuantity": {
          "value": 111.0,
          "unit": "beats/minute"
        }
      }
    },
    {
      "resource": {
        "resourceType": "Observation",
        "status": "final",
        "code": {
          "coding": [
            {
              "system": "http://loinc.org",
              "code": "85354-9",
              "display": "Blood pressure panel"
            }
          ]
        },
        "subject": {
          "reference": "Patient/77c0ccc3-7734-4f4a-8f3b-bc516b9d102d"
        },
        "effectiveDateTime": "2024-01-01T00:00:00",
        "component": [
          {
            "code": {
              "coding": [
                {
                  "system": "http://loinc.org",
                  "code": "8480-6",
                  "display": "Systolic"
                }
              ]
            },
            "valueQuantity": {
              "value": 111.0,
              "unit": "mmHg"
            }
          },
          {
            "code": {
              "coding": [
                {
                  "system": "http://loinc.org",
                  "code": "8462-4",
                  "display": "Diastolic"
                }
              ]
            },
            "valueQuantity": {
              "value": 85.0,
              "unit": "mmHg"
            }
          }
        ]
      }
    },
    {
      "resource": {
        "resourceType": "Patient",
        "id": "8d9a1705-d4cf-4dc3-a3f1-9abd67c4a978",
        "name": [
          {
            "text": "Sydney Cordova"
          }
        ],
        "telecom": [
          {
            "system": "email",
            "value": "megantate@example.org",
            "use": "home"
          }
        ],
        "gender": "female",
        "birthDate": "1977-07-23"
      }
    },
    {
      "resource": {
        "resourceType": "Observation",
        "status": "final",
        "code": {
          "coding": [
            {
              "system": "http://loinc.org",
              "code": "8867-4",
              "display": "Heart rate"
            }
          ]
        },
        "subject": {
          "reference": "Patient/8d9a1705-d4cf-4dc3-a3f1-9abd67c4a978"
        },
        "effectiveDateTime": "2024-01-01T00:00:00",
        "valueQuantity": {
          "value": 89.0,
          "unit": "beats/minute"
        }
      }
    },
    {
      "resource": {
        "resourceType": "Observation",
        "status": "final",
        "code": {
          "coding": [
            {
              "system": "http://loinc.org",
              "code": "85354-9",
              "display": "Blood pressure panel"
            }
          ]
        },
        "subject": {
          "reference": "Patient/8d9a1705-d4cf-4dc3-a3f1-9abd67c4a978"
        },
        "effectiveDateTime": "2024-01-01T00:00:00",
        "component": [
          {
            "code": {
              "coding": [
                {
                  "system": "http://loinc.org",
                  "code": "8480-6",
                  "display": "Systolic"
                }
              ]
            },
            "valueQuantity": {
              "value": 144.0,
              "unit": "mmHg"
            }
          },
          {
            "code": {
              "coding": [
                {
                  "system": "http://loinc.org",
                  "code": "8462-4",
                  "display": "Diastolic"
                }
              ]
            },
            "valueQuantity": {
              "value": 87.0,
              "unit": "mmHg"
            }
          }
        ]
      }
    },
    {
      "resource": {
        "resourceType": "Patient",
        "id": "7b379a3c-83db-4ba2-ac61-ca5f6df523bf",
        "name": [
          {
            "text": "Sherri Mills"
          }
        ],
        "telecom": [
          {
            "system": "email",
            "value": "oeaton@example.net",
            "use": "home"
          }
        ],
        "gender": "other",
        "birthDate": "2021-03-04"
      }
    },
    {
      "resource": {
        "resourceType": "Observation",
        "status": "final",
        "code": {
          "coding": [
            {
              "system": "http://loinc.org",
              "code": "8867-4",
              "display": "Heart rate"
            }
          ]
        },
        "subject": {
          "reference": "Patient/7b379a3c-83db-4ba2-ac61-ca5f6df523bf"
        },
        "effectiveDateTime": "2024-01-01T00:00:00",
        "valueQuantity": {
          "value": 67.0,
          "unit": "beats/minute"
        }
      }
    },
    {
      "resource": {
        "resourceType": "Observation",
        "status": "final",
        "code": {
          "coding": [
            {
              "system": "http://loinc.org",
              "code": "85354-9",
              "display": "Blood pressure panel"
            }
          ]
        },
        "subject": {
          "reference": "Patient/7b379a3c-83db-4ba2-ac61-ca5f6df523bf"
        },
        "effectiveDateTime": "2024-01-01T00:00:00",
        "component": [
          {
            "code": {
              "coding": [
                {
                  "system": "http://loinc.org",
                  "code": "8480-6",
                  "display": "Systolic"
                }
              ]
            },
            "valueQuantity": {
              "value": 110.0,
              "unit": "mmHg"
            }
          },
          {
            "code": {
              "coding": [
                {
                  "system": "http://loinc.org",
                  "code": "8462-4",
                  "display": "Diastolic"
                }
              ]
            },
            "valueQuantity": {
              "value": 97.0,
              "unit": "mmHg"
            }
          }
        ]
      }
    },
    {
      "resource": {
        "resourceType": "Patient",
        "id": "aa2f1837-e858-4257-8a62-a8c057ee2698",
        "name": [
          {
            "text": "Jacob Wright"
          }
        ],
        "telecom": [
          {
            "system": "email",
            "value": "ericmoses@example.org",
            "use": "home"
          }
        ],
        "gender": "male",
        "birthDate": "1973-08-25"
      }
    },
    {
      "resource": {
        "resourceType": "Observation",
        "status": "final",
        "code": {
          "coding": [
            {
              "system": "http://loinc.org",
              "code": "8867-4",
              "display": "Heart rate"
            }
          ]
        },
        "subject": {
          "reference": "Patient/aa2f1837-e858-4257-8a62-a8c057ee2698"
        },
        "effectiveDateTime": "2024-01-01T00:00:00",
        "valueQuantity": {
          "value": 69.0,
          "unit": "beats/minute"
        }
      }
    },
    {
      "resource": {
        "resourceType": "Observation",
        "status": "final",
        "code": {
          "coding": [
            {
              "system": "http://loinc.org",
              "code": "85354-9",
              "display": "Blood pressure panel"
            }
          ]
        },
        "subject": {
          "reference": "Patient/aa2f1837-e858-4257-8a62-a8c057ee2698"
        },
        "effectiveDateTime": "2024-01-01T00:00:00",
        "component": [
          {
            "code": {
              "coding": [
                {
                  "system": "http://loinc.org",
                  "code": "8480-6",
                  "display": "Systolic"
                }
              ]
            },
            "valueQuantity": {
              "value": 150.0,
              "unit": "mmHg"
            }
          },
          {
            "code": {
              "coding": [
                {
                  "system": "http://loinc.org",
                  "code": "8462-4",
                  "display": "Diastolic"
                }
              ]
            },
            "valueQuantity": {
              "value": 73.0,
              "unit": "mmHg"
            }
          }
        ]
      }
    },
    {
      "resource": {
        "resourceType": "Patient",
        "id": "1bd91730-c0f5-49cd-8c9d-bc9027f642e7",
        "name": [
          {
            "text": "Bradley Warren"
          }
        ],
        "telecom": [
          {
            "system": "email",
            "value": "gregorymoore@example.com",
            "use": "home"
          }
        ],
        "gender": "male",
        "birthDate": "2004-09-02"
      }
    },
    {
      "resource": {
        "resourceType": "Observation",
        "status": "final",
        "code": {
          "coding": [
            {
              "system": "http://loinc.org",
              "code": "8867-4",
              "display": "Heart rate"
            }
          ]
        },
        "subject": {
          "reference": "Patient/1bd91730-c0f5-49cd-8c9d-bc9027f642e7"
        },
        "effectiveDateTime": "2024-01-01T00:00:00",
        "valueQuantity": {
          "value": 67.0,
          "unit": "beats/minute"
        }
      }
    },
    {
      "resource": {
        "resourceType": "Observation",
        "status": "final",
        "code": {
          "coding": [
            {
              "system": "http://loinc.org",
              "code": "85354-9",
              "display": "Blood pressure panel"
            }
          ]
        },
        "subject": {
          "reference": "Patient/1bd91730-c0f5-49cd-8c9d-bc9027f642e7"
        },
        "effectiveDateTime": "2024-01-01T00:00:00",
        "component": [
          {
            "code": {
              "coding": [
                {
                  "system": "http://loinc.org",
                  "code": "8480-6",
                  "display": "Systolic"
                }
              ]
            },
            "valueQuantity": {
              "value": 153.0,
              "unit": "mmHg"
            }
          },
          {
            "code": {
              "coding": [
                {
                  "system": "http://loinc.org",
                  "code": "8462-4",
                  "display": "Diastolic"
                }
              ]
            },
            "valueQuantity": {
              "value": 80.0,
              "unit": "mmHg"
            }
          }
        ]
      }
    },
    {
      "resource": {
        "resourceType": "Patient",
        "id": "5424171c-b7f6-43ca-acc3-2868c88d404e",
        "name": [
          {
            "text": "Allen Estrada"
          }
        ],
        "telecom": [
          {
            "system": "email",
            "value": "baileygavin@example.org",
            "use": "home"
          }
        ],
        "gender": "other",
        "birthDate": "1967-11-06"
      }
    },
    {
      "resource": {
        "resourceType": "Observation",
        "status": "final",
        "code": {
          "coding": [
            {
              "system": "http://loinc.org",
              "code": "8867-4",
              "display": "Heart rate"
            }
          ]
        },
        "subject": {
          "reference": "Patient/5424171c-b7f6-43ca-acc3-2868c88d404e"
        },
        "effectiveDateTime": "2024-01-01T00:00:00",
        "valueQuantity": {
          "value": 63.0,
          "unit": "beats/minute"
        }
      }
    },
    {
      "resource": {
        "resourceType": "Observation",
        "status": "final",
        "code": {
          "coding": [
            {
              "system": "http://loinc.org",
              "code": "85354-9",
              "display": "Blood pressure panel"
            }
          ]
        },
        "subject": {
          "reference": "Patient/5424171c-b7f6-43ca-acc3-2868c88d404e"
        },
        "effectiveDateTime": "2024-01-01T00:00:00",
        "component": [
          {
            "code": {
              "coding": [
                {
                  "system": "http://loinc.org",
                  "code": "8480-6",
                  "display": "Systolic"
                }
              ]
            },
            "valueQuantity": {
              "value": 166.0,
              "unit": "mmHg"
            }
          },
          {
            "code": {
              "coding": [
                {
                  "system": "http://loinc.org",
                  "code": "8462-4",
                  "display": "Diastolic"
                }
              ]
            },
            "valueQuantity": {
              "value": 92.0,
              "unit": "mmHg"
            }
          }
        ]
      }
    },
    {
      "resource": {
        "resourceType": "Patient",
        "id": "18126695-1702-4bb2-8f21-81c29e26f465",
        "name": [
          {
            "text": "Nicole Walker"
          }
        ],
        "telecom": [
          {
            "system": "email",
            "value": "george95@example.net",
            "use": "home"
          }
        ],
        "gender": "other",
        "birthDate": "1952-08-08"
      }
    },
    {
      "resource": {
        "resourceType": "Observation",
        "status": "final",
        "code": {
          "coding": [
            {
              "system": "http://loinc.org",
              "code": "8867-4",
              "display": "Heart rate"
            }
          ]
        },
        "subject": {
          "reference": "Patient/18126695-1702-4bb2-8f21-81c29e26f465"
        },
        "effectiveDateTime": "2024-01-01T00:00:00",
        "valueQuantity": {
          "value": 114.0,
          "unit": "beats/minute"
        }
      }
    },
    {
      "resource": {
        "resourceType": "Observation",
        "status": "final",
        "code": {
          "coding": [
            {
              "system": "http://loinc.org",
              "code": "85354-9",
              "display": "Blood pressure panel"
            }
          ]
        },
        "subject": {
          "reference": "Patient/18126695-1702-4bb2-8f21-81c29e26f465"
        },
        "effectiveDateTime": "2024-01-01T00:00:00",
        "component": [
          {
            "code": {
              "coding": [
                {
                  "system": "http://loinc.org",
                  "code": "8480-6",
                  "display": "Systolic"
                }
              ]
            },
            "valueQuantity": {
              "value": 137.0,
              "unit": "mmHg"
            }
          },
          {
            "code": {
              "coding": [
                {
                  "system": "http://loinc.org",
                  "code": "8462-4",
                  "display": "Diastolic"
                }
              ]
            },
            "valueQuantity": {
              "value": 89.0,
              "unit": "mmHg"
            }
          }
        ]
      }
    },
    {
      "resource": {
        "resourceType": "Patient",
        "id": "8994c4c5-0f49-40ea-883b-7d65162e7f44",
        "name": [
          {
            "text": "Jessica Sanders"
          }
        ],
        "telecom": [
          {
            "system": "email",
            "value": "vhernandez@example.com",
            "use": "home"
          }
        ],
        "gender": "other",
        "birthDate": "1935-02-19"
      }
    },
    {
      "resource": {
        "resourceType": "Observation",
        "status": "final",
        "code": {
          "coding": [
            {
              "system": "http://loinc.org",
              "code": "8867-4",
              "display": "Heart rate"
            }
          ]
        },
        "subject": {
          "reference": "Patient/8994c4c5-0f49-40ea-883b-7d65162e7f44"
        },
        "effectiveDateTime": "2024-01-01T00:00:00",
        "valueQuantity": {
          "value": 52.0,
          "unit": "beats/minute"
        }
      }
    },
    {
      "resource": {
        "resourceType": "Observation",
        "status": "final",
        "code": {
          "coding": [
            {
              "system": "http://loinc.org",
              "code": "85354-9",
              "display": "Blood pressure panel"
            }
          ]
        },
        "subject": {
          "reference": "Patient/8994c4c5-0f49-40ea-883b-7d65162e7f44"
        },
        "effectiveDateTime": "2024-01-01T00:00:00",
        "component": [
          {
            "code": {
              "coding": [
                {
                  "system": "http://loinc.org",
                  "code": "8480-6",
                  "display": "Systolic"
                }
              ]
            },
            "valueQuantity": {
              "value": 127.0,
              "unit": "mmHg"
            }
          },
          {
            "code": {
              "coding": [
                {
                  "system": "http://loinc.org",
                  "code": "8462-4",
                  "display": "Diastolic"
                }
              ]
            },
            "valueQuantity": {
              "value": 84.0,
              "unit": "mmHg"
            }
          }
        ]
      }
    },
    {
      "resource": {
        "resourceType": "Patient",
        "id": "abddfc0d-8dd5-4254-81ed-9de6f84a3457",
        "name": [
          {
            "text": "Patrick Clay"
          }
        ],
        "telecom": [
          {
            "system": "email",
            "value": "jenna75@example.org",
            "use": "home"
          }
        ],
        "gender": "other",
        "birthDate": "1952-10-27"
      }
    },
    {
      "resource": {
        "resourceType": "Observation",
        "status": "final",
        "code": {
          "coding": [
            {
              "system": "http://loinc.org",
              "code": "8867-4",
              "display": "Heart rate"
            }
          ]
        },
        "subject": {
          "reference": "Patient/abddfc0d-8dd5-4254-81ed-9de6f84a3457"
        },
        "effectiveDateTime": "2024-01-01T00:00:00",
        "valueQuantity": {
          "value": 95.0,
          "unit": "beats/minute"
        }
      }
    },
    {
      "resource": {
        "resourceType": "Observation",
        "status": "final",
        "code": {
          "coding": [
            {
              "system": "http://loinc.org",
              "code": "85354-9",
              "display": "Blood pressure panel"
            }
          ]
        },
        "subject": {
          "reference": "Patient/abddfc0d-8dd5-4254-81ed-9de6f84a3457"
        },
        "effectiveDateTime": "2024-01-01T00:00:00",
        "component": [
          {
            "code": {
              "coding": [
                {
                  "system": "http://loinc.org",
                  "code": "8480-6",
                  "display": "Systolic"
                }
              ]
            },
            "valueQuantity": {
              "value": 114.0,
              "unit": "mmHg"
            }
          },
          {
            "code": {
              "coding": [
                {
                  "system": "http://loinc.org",
                  "code": "8462-4",
                  "display": "Diastolic"
                }
              ]
            },
            "valueQuantity": {
              "value": 96.0,
              "unit": "mmHg"
            }
          }
        ]
      }
    },
    {
      "resource": {
        "resourceType": "Patient",
        "id": "770a08c3-0097-41a0-99de-345c25f5474d",
        "name": [
          {
            "text": "Michael Kane"
          }
        ],
        "telecom": [
          {
            "system": "email",
            "value": "barrerakatrina@example.com",
            "use": "home"
          }
        ],
        "gender": "female",
        "birthDate": "2011-09-14"
      }
    },
    {
      "resource": {
        "resourceType": "Observation",
        "status": "final",
        "code": {
          "coding": [
            {
              "system": "http://loinc.org",
              "code": "8867-4",
              "display": "Heart rate"
            }
          ]
        },
        "subject": {
          "reference": "Patient/770a08c3-0097-41a0-99de-345c25f5474d"
        },
        "effectiveDateTime": "2024-01-01T00:00:00",
        "valueQuantity": {
          "value": 78.0,
          "unit": "beats/minute"
        }
      }
    },
    {
      "resource": {
        "resourceType": "Observation",
        "status": "final",
        "code": {
          "coding": [
            {
              "system": "http://loinc.org",
              "code": "85354-9",
              "display": "Blood pressure panel"
            }
          ]
        },
        "subject": {
          "reference": "Patient/770a08c3-0097-41a0-99de-345c25f5474d"
        },
        "effectiveDateTime": "2024-01-01T00:00:00",
        "component": [
          {
            "code": {
              "coding": [
                {
                  "system": "http://loinc.org",
                  "code": "8480-6",
                  "display": "Systolic"
                }
              ]
            },
            "valueQuantity": {
              "value": 141.0,
              "unit": "mmHg"
            }
          },
          {
            "code": {
              "coding": [
                {
                  "system": "http://loinc.org",
                  "code": "8462-4",
                  "display": "Diastolic"
                }
              ]
            },
            "valueQuantity": {
              "value": 94.0,
              "unit": "mmHg"
            }
          }
        ]
      }
    },
    {
      "resource": {
        "resourceType": "Patient",
        "id": "64bc9338-2b02-4ce6-9b88-1da441bdcefb",
        "name": [
          {
            "text": "Kristina Patterson"
          }
        ],
        "telecom": [
          {
            "system": "email",
            "value": "rlee@example.net",
            "use": "home"
          }
        ],
        "gender": "female",
        "birthDate": "2022-06-14"
      }
    },
    {
      "resource": {
        "resourceType": "Observation",
        "status": "final",
        "code": {
          "coding": [
            {
              "system": "http://loinc.org",
              "code": "8867-4",
              "display": "Heart rate"
            }
          ]
        },
        "subject": {
          "reference": "Patient/64bc9338-2b02-4ce6-9b88-1da441bdcefb"
        },
        "effectiveDateTime": "2024-01-01T00:00:00",
        "valueQuantity": {
          "value": 72.0,
          "unit": "beats/minute"
        }
      }
    },
    {
      "resource": {
        "resourceType": "Observation",
        "status": "final",
        "code": {
          "coding": [
            {
              "system": "http://loinc.org",
              "code": "85354-9",
              "display": "Blood pressure panel"
            }
          ]
        },
        "subject": {
          "reference": "Patient/64bc9338-2b02-4ce6-9b88-1da441bdcefb"
        },
        "effectiveDateTime": "2024-01-01T00:00:00",
        "component": [
          {
            "code": {
              "coding": [
                {
                  "system": "http://loinc.org",
                  "code": "8480-6",
                  "display": "Systolic"
                }
              ]
            },
            "valueQuantity": {
              "value": 159.0,
              "unit": "mmHg"
            }
          },
          {
            "code": {
              "coding": [
                {
                  "system": "http://loinc.org",
                  "code": "8462-4",
                  "display": "Diastolic"
                }
              ]
            },
            "valueQuantity": {
              "value": 85.0,
              "unit": "mmHg"
            }
          }
        ]
      }
    },
    {
      "resource": {
        "resourceType": "Patient",
        "id": "3b5e8944-34af-409b-9dac-981dfdc2b2e1",
        "name": [
          {
            "text": "Gregory Schneider"
          }
        ],
        "telecom": [
          {
            "system": "email",
            "value": "hawkinsjacob@example.org",
            "use": "home"
          }
        ],
        "gender": "other",
        "birthDate": "1962-12-29"
      }
    },
    {
      "resource": {
        "resourceType": "Observation",
        "status": "final",
        "code": {
          "coding": [
            {
              "system": "http://loinc.org",
              "code": "8867-4",
              "display": "Heart rate"
            }
          ]
        },
        "subject": {
          "reference": "Patient/3b5e8944-34af-409b-9dac-981dfdc2b2e1"
        },
        "effectiveDateTime": "2024-01-01T00:00:00",
        "valueQuantity": {
          "value": 94.0,
          "unit": "beats/minute"
        }
      }
    },
    {
      "resource": {
        "resourceType": "Observation",
        "status": "final",
        "code": {
          "coding": [
            {
              "system": "http://loinc.org",
              "code": "85354-9",
              "display": "Blood pressure panel"
            }
          ]
        },
        "subject": {
          "reference": "Patient/3b5e8944-34af-409b-9dac-981dfdc2b2e1"
        },
        "effectiveDateTime": "2024-01-01T00:00:00",
        "component": [
          {
            "code": {
              "coding": [
                {
                  "system": "http://loinc.org",
                  "code": "8480-6",
                  "display": "Systolic"
                }
              ]
            },
            "valueQuantity": {
              "value": 125.0,
              "unit": "mmHg"
            }
          },
          {
            "code": {
              "coding": [
                {
                  "system": "http://loinc.org",
                  "code": "8462-4",
                  "display": "Diastolic"
                }
              ]
            },
            "valueQuantity": {
              "value": 95.0,
              "unit": "mmHg"
            }
          }
        ]
      }
    }
  ]
}